# E (eV)   ldos(E)   pdos(E)   
-16.193000 0.000000 0.000000
-16.183000 1.760000 1.760000
-16.173000 1.308000 1.308000
-16.163000 1.440000 1.440000
-16.153000 1.574000 1.574000
-16.143000 1.434000 1.434000
-16.133000 1.356000 1.356000
-16.123000 1.400000 1.400000
-16.113000 1.438000 1.438000
-16.103000 1.476000 1.476000
-16.093000 1.386000 1.386000
-16.083000 1.370000 1.370000
-16.073000 1.346000 1.346000
-16.063000 1.354000 1.354000
-16.053000 1.366000 1.366000
-16.043000 1.384000 1.384000
-16.033000 1.402000 1.402000
-16.023000 1.368000 1.368000
-16.013000 1.318000 1.318000
-16.003000 1.318000 1.318000
-15.993000 1.312000 1.312000
-15.983000 1.312000 1.312000
-15.973000 1.312000 1.312000
-15.963000 1.322000 1.322000
-15.953000 1.324000 1.324000
-15.943000 1.334000 1.334000
-15.933000 1.300000 1.300000
-15.923000 1.290000 1.290000
-15.913000 1.274000 1.274000
-15.903000 1.268000 1.268000
-15.893000 1.268000 1.268000
-15.883000 1.270000 1.270000
-15.873000 1.270000 1.270000
-15.863000 1.270000 1.270000
-15.853000 1.272000 1.272000
-15.843000 1.274000 1.274000
-15.833000 1.276000 1.276000
-15.823000 1.260000 1.260000
-15.813000 1.242000 1.242000
-15.803000 1.242000 1.242000
-15.793000 1.236000 1.236000
-15.783000 1.228000 1.228000
-15.773000 1.230000 1.230000
-15.763000 1.232000 1.232000
-15.753000 1.232000 1.232000
-15.743000 1.234000 1.234000
-15.733000 1.236000 1.236000
-15.723000 1.236000 1.236000
-15.713000 1.244000 1.244000
-15.703000 1.246000 1.246000
-15.693000 1.230000 1.230000
-15.683000 1.222000 1.222000
-15.673000 1.224000 1.224000
-15.663000 1.224000 1.224000
-15.653000 1.226000 1.226000
-15.643000 1.228000 1.228000
-15.633000 1.230000 1.230000
-15.623000 1.232000 1.232000
-15.613000 1.242000 1.242000
-15.603000 1.244000 1.244000
-15.593000 1.252000 1.252000
-15.583000 1.256000 1.256000
-15.573000 1.258000 1.258000
-15.563000 1.260000 1.260000
-15.553000 1.262000 1.262000
-15.543000 1.272000 1.272000
-15.533000 1.282000 1.282000
-15.523000 1.294000 1.294000
-15.513000 1.306000 1.306000
-15.503000 1.324000 1.324000
-15.493000 1.336000 1.336000
-15.483000 1.364000 1.364000
-15.473000 1.394000 1.394000
-15.463000 1.418000 1.418000
-15.453000 1.448000 1.448000
-15.443000 1.478000 1.478000
-15.433000 1.530000 1.530000
-15.423000 1.598000 1.598000
-15.413000 1.666000 1.666000
-15.403000 1.758000 1.758000
-15.393000 1.922000 1.922000
-15.383000 6.526000 6.526000
-15.373000 1.772000 1.772000
-15.363000 1.602000 1.602000
-15.353000 1.430000 1.430000
-15.343000 1.260000 1.260000
-15.333000 1.090000 1.090000
-15.323000 1.090000 1.090000
-15.313000 1.100000 1.100000
-15.303000 1.110000 1.110000
-15.293000 0.797200 0.797200
-15.283000 0.813400 0.813400
-15.273000 0.832200 0.832200
-15.263000 0.799200 0.799200
-15.253000 0.746800 0.746800
-15.243000 0.697600 0.697600
-15.233000 0.648400 0.648400
-15.223000 0.599200 0.599200
-15.213000 0.550600 0.550600
-15.203000 0.501600 0.501600
-15.193000 0.462200 0.462200
-15.183000 0.452200 0.452200
-15.173000 0.443000 0.443000
-15.163000 0.433600 0.433600
-15.153000 0.424400 0.424400
-15.143000 0.415000 0.415000
-15.133000 0.406200 0.406200
-15.123000 0.244600 0.244600
-15.113000 0.228200 0.228200
-15.103000 0.211800 0.211800
-15.093000 0.195200 0.195200
-15.083000 0.179000 0.179000
-15.073000 0.162600 0.162600
-15.063000 0.146200 0.146200
-15.053000 0.130600 0.130600
-15.043000 0.114200 0.114200
-15.033000 0.098600 0.098600
-15.023000 0.083000 0.083000
-15.013000 0.067460 0.067460
-15.003000 0.052120 0.052120
-14.993000 0.036720 0.036720
-14.983000 0.021540 0.021540
-14.973000 0.006404 0.006404
-14.963000 0.008284 0.008284
-14.953000 0.022760 0.022760
-14.943000 0.037180 0.037180
-14.933000 0.051500 0.051500
-14.923000 0.065800 0.065800
-14.913000 0.079840 0.079840
-14.903000 0.093960 0.093960
-14.893000 0.108000 0.108000
-14.883000 0.121800 0.121800
-14.873000 0.135600 0.135600
-14.863000 0.149400 0.149400
-14.853000 0.163000 0.163000
-14.843000 0.176200 0.176200
-14.833000 0.189800 0.189800
-14.823000 0.202800 0.202800
-14.813000 0.216400 0.216400
-14.803000 0.365800 0.365800
-14.793000 0.366200 0.366200
-14.783000 0.366200 0.366200
-14.773000 0.366800 0.366800
-14.763000 0.366800 0.366800
-14.753000 0.366800 0.366800
-14.743000 0.378400 0.378400
-14.733000 0.420000 0.420000
-14.723000 0.460800 0.460800
-14.713000 0.502000 0.502000
-14.703000 0.541600 0.541600
-14.693000 0.583400 0.583400
-14.683000 0.624600 0.624600
-14.673000 0.663800 0.663800
-14.663000 0.703000 0.703000
-14.653000 0.587000 0.587000
-14.643000 0.984000 0.984000
-14.633000 0.760400 0.760400
-14.623000 0.855000 0.855000
-14.613000 0.996000 0.996000
-14.603000 1.136000 1.136000
-14.593000 2.078000 2.078000
-14.583000 1.372000 1.372000
-14.573000 1.274000 1.274000
-14.563000 1.174000 1.174000
-14.553000 1.080000 1.080000
-14.543000 0.998000 0.998000
-14.533000 0.947600 0.947600
-14.523000 0.896000 0.896000
-14.513000 0.853200 0.853200
-14.503000 0.820800 0.820800
-14.493000 0.792800 0.792800
-14.483000 0.767400 0.767400
-14.473000 0.740000 0.740000
-14.463000 0.708800 0.708800
-14.453000 0.693400 0.693400
-14.443000 0.676600 0.676600
-14.433000 0.659200 0.659200
-14.423000 0.648000 0.648000
-14.413000 0.636800 0.636800
-14.403000 0.625000 0.625000
-14.393000 0.615800 0.615800
-14.383000 0.604600 0.604600
-14.373000 0.593400 0.593400
-14.363000 0.582800 0.582800
-14.353000 0.571600 0.571600
-14.343000 0.563000 0.563000
-14.333000 0.552400 0.552400
-14.323000 0.541800 0.541800
-14.313000 0.531800 0.531800
-14.303000 0.523800 0.523800
-14.293000 0.513800 0.513800
-14.283000 0.505000 0.505000
-14.273000 0.491600 0.491600
-14.263000 0.478200 0.478200
-14.253000 0.469600 0.469600
-14.243000 0.464200 0.464200
-14.233000 0.458800 0.458800
-14.223000 0.453400 0.453400
-14.213000 0.448200 0.448200
-14.203000 0.442800 0.442800
-14.193000 0.437400 0.437400
-14.183000 0.432800 0.432800
-14.173000 0.427400 0.427400
-14.163000 0.422000 0.422000
-14.153000 0.417400 0.417400
-14.143000 0.412000 0.412000
-14.133000 0.407400 0.407400
-14.123000 0.402600 0.402600
-14.113000 0.397400 0.397400
-14.103000 0.392600 0.392600
-14.093000 0.387000 0.387000
-14.083000 0.381400 0.381400
-14.073000 0.375000 0.375000
-14.063000 0.369200 0.369200
-14.053000 0.363400 0.363400
-14.043000 0.357600 0.357600
-14.033000 0.344800 0.344800
-14.023000 0.342000 0.342000
-14.013000 0.338600 0.338600
-14.003000 0.335600 0.335600
-13.993000 0.332200 0.332200
-13.983000 0.329400 0.329400
-13.973000 0.326000 0.326000
-13.963000 0.323000 0.323000
-13.953000 0.319600 0.319600
-13.943000 0.316800 0.316800
-13.933000 0.314000 0.314000
-13.923000 0.310600 0.310600
-13.913000 0.307600 0.307600
-13.903000 0.303800 0.303800
-13.893000 0.300200 0.300200
-13.883000 0.296600 0.296600
-13.873000 0.293600 0.293600
-13.863000 0.289800 0.289800
-13.853000 0.286200 0.286200
-13.843000 0.283200 0.283200
-13.833000 0.279600 0.279600
-13.823000 0.276600 0.276600
-13.813000 0.270800 0.270800
-13.803000 0.264800 0.264800
-13.793000 0.259000 0.259000
-13.783000 0.254000 0.254000
-13.773000 0.252000 0.252000
-13.763000 0.249600 0.249600
-13.753000 0.247600 0.247600
-13.743000 0.245600 0.245600
-13.733000 0.243000 0.243000
-13.723000 0.241000 0.241000
-13.713000 0.238400 0.238400
-13.703000 0.236400 0.236400
-13.693000 0.233800 0.233800
-13.683000 0.231800 0.231800
-13.673000 0.229800 0.229800
-13.663000 0.227200 0.227200
-13.653000 0.225400 0.225400
-13.643000 0.223400 0.223400
-13.633000 0.220800 0.220800
-13.623000 0.218800 0.218800
-13.613000 0.216000 0.216000
-13.603000 0.213200 0.213200
-13.593000 0.210200 0.210200
-13.583000 0.207200 0.207200
-13.573000 0.204400 0.204400
-13.563000 0.201400 0.201400
-13.553000 0.199200 0.199200
-13.543000 0.196200 0.196200
-13.533000 0.187000 0.187000
-13.523000 0.185800 0.185800
-13.513000 0.184200 0.184200
-13.503000 0.182400 0.182400
-13.493000 0.181200 0.181200
-13.483000 0.179400 0.179400
-13.473000 0.177800 0.177800
-13.463000 0.176600 0.176600
-13.453000 0.174800 0.174800
-13.443000 0.173000 0.173000
-13.433000 0.172000 0.172000
-13.423000 0.170000 0.170000
-13.413000 0.168200 0.168200
-13.403000 0.166400 0.166400
-13.393000 0.164400 0.164400
-13.383000 0.163200 0.163200
-13.373000 0.161400 0.161400
-13.363000 0.159400 0.159400
-13.353000 0.157600 0.157600
-13.343000 0.155800 0.155800
-13.333000 0.154400 0.154400
-13.323000 0.152600 0.152600
-13.313000 0.150800 0.150800
-13.303000 0.148800 0.148800
-13.293000 0.146800 0.146800
-13.283000 0.143600 0.143600
-13.273000 0.140400 0.140400
-13.263000 0.137200 0.137200
-13.253000 0.134000 0.134000
-13.243000 0.131200 0.131200
-13.233000 0.130000 0.130000
-13.223000 0.129000 0.129000
-13.213000 0.127400 0.127400
-13.203000 0.126400 0.126400
-13.193000 0.125200 0.125200
-13.183000 0.124200 0.124200
-13.173000 0.122600 0.122600
-13.163000 0.121600 0.121600
-13.153000 0.120400 0.120400
-13.143000 0.119400 0.119400
-13.133000 0.118400 0.118400
-13.123000 0.116800 0.116800
-13.113000 0.115600 0.115600
-13.103000 0.114600 0.114600
-13.093000 0.113280 0.113280
-13.083000 0.111720 0.111720
-13.073000 0.110220 0.110220
-13.063000 0.108720 0.108720
-13.053000 0.107220 0.107220
-13.043000 0.105520 0.105520
-13.033000 0.104080 0.104080
-13.023000 0.102580 0.102580
-13.013000 0.101140 0.101140
-13.003000 0.099640 0.099640
-12.993000 0.098200 0.098200
-12.983000 0.096560 0.096560
-12.973000 0.095120 0.095120
-12.963000 0.089020 0.089020
-12.953000 0.088080 0.088080
-12.943000 0.087080 0.087080
-12.933000 0.092200 0.092200
-12.923000 0.366600 0.366600
-12.913000 0.639000 0.639000
-12.903000 0.906200 0.906200
-12.893000 0.558200 0.558200
-12.883000 0.577200 0.577200
-12.873000 0.596200 0.596200
-12.863000 0.615200 0.615200
-12.853000 0.633800 0.633800
-12.843000 0.652800 0.652800
-12.833000 0.670600 0.670600
-12.823000 0.652400 0.652400
-12.813000 0.620800 0.620800
-12.803000 0.612800 0.612800
-12.793000 0.617400 0.617400
-12.783000 0.621800 0.621800
-12.773000 0.626400 0.626400
-12.763000 0.631000 0.631000
-12.753000 0.635600 0.635600
-12.743000 0.638200 0.638200
-12.733000 0.649600 0.649600
-12.723000 0.654800 0.654800
-12.713000 0.660200 0.660200
-12.703000 0.671600 0.671600
-12.693000 0.652800 0.652800
-12.683000 0.652000 0.652000
-12.673000 0.651400 0.651400
-12.663000 0.650600 0.650600
-12.653000 0.650000 0.650000
-12.643000 0.655800 0.655800
-12.633000 0.661600 0.661600
-12.623000 0.667200 0.667200
-12.613000 0.673000 0.673000
-12.603000 0.678800 0.678800
-12.593000 0.684600 0.684600
-12.583000 0.690200 0.690200
-12.573000 0.696000 0.696000
-12.563000 0.695800 0.695800
-12.553000 0.701400 0.701400
-12.543000 0.719400 0.719400
-12.533000 0.731000 0.731000
-12.523000 0.742800 0.742800
-12.513000 0.748400 0.748400
-12.503000 0.772200 0.772200
-12.493000 0.783800 0.783800
-12.483000 0.789400 0.789400
-12.473000 0.801000 0.801000
-12.463000 0.806600 0.806600
-12.453000 0.818000 0.818000
-12.443000 0.823600 0.823600
-12.433000 0.829200 0.829200
-12.423000 0.834600 0.834600
-12.413000 0.840200 0.840200
-12.403000 1.002400 1.002400
-12.393000 1.118800 1.118800
-12.383000 1.208600 1.208600
-12.373000 1.280000 1.280000
-12.363000 1.345420 1.345420
-12.353000 1.398680 1.398680
-12.343000 1.265840 1.265840
-12.333000 1.067180 1.067180
-12.323000 0.976580 0.976580
-12.313000 0.892020 0.892020
-12.303000 0.849460 0.849460
-12.293000 0.800880 0.800880
-12.283000 0.752300 0.752300
-12.273000 0.733780 0.733780
-12.263000 0.703220 0.703220
-12.253000 0.678640 0.678640
-12.243000 0.654040 0.654040
-12.233000 0.635420 0.635420
-12.223000 0.616800 0.616800
-12.213000 0.583760 0.583760
-12.203000 0.553080 0.553080
-12.193000 0.523000 0.523000
-12.183000 0.492880 0.492880
-12.173000 0.498200 0.498200
-12.163000 0.540120 0.540120
-12.153000 0.509380 0.509380
-12.143000 0.478600 0.478600
-12.133000 0.449020 0.449020
-12.123000 0.419400 0.419400
-12.113000 0.390960 0.390960
-12.103000 0.397316 0.397316
-12.093000 0.448698 0.448698
-12.083000 0.413620 0.413620
-12.073000 0.379887 0.379887
-12.063000 0.346860 0.346860
-12.053000 0.319231 0.319231
-12.043000 0.407426 0.407426
-12.033000 0.352218 0.352218
-12.023000 0.297608 0.297608
-12.013000 0.447600 0.447600
-12.003000 0.042300 0.042300
-11.993000 0.000700 0.000700
-11.983000 0.001485 0.001485
-11.973000 0.002272 0.002272
-11.963000 0.003060 0.003060
-11.953000 0.003844 0.003844
-11.943000 0.004634 0.004634
-11.933000 0.005422 0.005422
-11.923000 0.006208 0.006208
-11.913000 0.006998 0.006998
-11.903000 0.007782 0.007782
-11.893000 0.008586 0.008586
-11.883000 0.009356 0.009356
-11.873000 0.010160 0.010160
-11.863000 0.010980 0.010980
-11.853000 0.011760 0.011760
-11.843000 0.012500 0.012500
-11.833000 0.013340 0.013340
-11.823000 0.014080 0.014080
-11.813000 0.014920 0.014920
-11.803000 0.015700 0.015700
-11.793000 0.016460 0.016460
-11.783000 0.017240 0.017240
-11.773000 0.018060 0.018060
-11.763000 0.018820 0.018820
-11.753000 0.019620 0.019620
-11.743000 0.020460 0.020460
-11.733000 0.021240 0.021240
-11.723000 0.022060 0.022060
-11.713000 0.022840 0.022840
-11.703000 0.023640 0.023640
-11.693000 0.031200 0.031200
-11.683000 0.031820 0.031820
-11.673000 0.032460 0.032460
-11.663000 0.033100 0.033100
-11.653000 0.033680 0.033680
-11.643000 0.034320 0.034320
-11.633000 0.034960 0.034960
-11.623000 0.035540 0.035540
-11.613000 0.036180 0.036180
-11.603000 0.036820 0.036820
-11.593000 0.037400 0.037400
-11.583000 0.038040 0.038040
-11.573000 0.038680 0.038680
-11.563000 0.039260 0.039260
-11.553000 0.039940 0.039940
-11.543000 0.040380 0.040380
-11.533000 0.041080 0.041080
-11.523000 0.041720 0.041720
-11.513000 0.042420 0.042420
-11.503000 0.042860 0.042860
-11.493000 0.043560 0.043560
-11.483000 0.044200 0.044200
-11.473000 0.044700 0.044700
-11.463000 0.045340 0.045340
-11.453000 0.046100 0.046100
-11.443000 0.048260 0.048260
-11.433000 0.050160 0.050160
-11.423000 0.052120 0.052120
-11.413000 0.054080 0.054080
-11.403000 0.056040 0.056040
-11.393000 0.058060 0.058060
-11.383000 0.060020 0.060020
-11.373000 0.061660 0.061660
-11.363000 0.062660 0.062660
-11.353000 0.063860 0.063860
-11.343000 0.065060 0.065060
-11.333000 0.066060 0.066060
-11.323000 0.067320 0.067320
-11.313000 0.068520 0.068520
-11.303000 0.069580 0.069580
-11.293000 0.070840 0.070840
-11.283000 0.071900 0.071900
-11.273000 0.073160 0.073160
-11.263000 0.074220 0.074220
-11.253000 0.075480 0.075480
-11.243000 0.076600 0.076600
-11.233000 0.077860 0.077860
-11.223000 0.078980 0.078980
-11.213000 0.080300 0.080300
-11.203000 0.081420 0.081420
-11.193000 0.082540 0.082540
-11.183000 0.088400 0.088400
-11.173000 0.091860 0.091860
-11.163000 0.095440 0.095440
-11.153000 0.098880 0.098880
-11.143000 0.102640 0.102640
-11.133000 0.106200 0.106200
-11.123000 0.109820 0.109820
-11.113000 0.113560 0.113560
-11.103000 0.117600 0.117600
-11.093000 0.121400 0.121400
-11.083000 0.125200 0.125200
-11.073000 0.129000 0.129000
-11.063000 0.133200 0.133200
-11.053000 0.137000 0.137000
-11.043000 0.141200 0.141200
-11.033000 0.145400 0.145400
-11.023000 0.149600 0.149600
-11.013000 0.253600 0.253600
-11.003000 0.416600 0.416600
-10.993000 0.499800 0.499800
-10.983000 0.582400 0.582400
-10.973000 0.653800 0.653800
-10.963000 0.778200 0.778200
-10.953000 0.870000 0.870000
-10.943000 0.972000 0.972000
-10.933000 1.116000 1.116000
-10.923000 1.228000 1.228000
-10.913000 1.098000 1.098000
-10.903000 1.018000 1.018000
-10.893000 0.954000 0.954000
-10.883000 0.898000 0.898000
-10.873000 0.834000 0.834000
-10.863000 0.763200 0.763200
-10.853000 0.594000 0.594000
-10.843000 0.507200 0.507200
-10.833000 0.502600 0.502600
-10.823000 0.497400 0.497400
-10.813000 0.492800 0.492800
-10.803000 0.488200 0.488200
-10.793000 0.483000 0.483000
-10.783000 0.478400 0.478400
-10.773000 0.473400 0.473400
-10.763000 0.468800 0.468800
-10.753000 0.459600 0.459600
-10.743000 0.454200 0.454200
-10.733000 0.448800 0.448800
-10.723000 0.443000 0.443000
-10.713000 0.437600 0.437600
-10.703000 0.432400 0.432400
-10.693000 0.427000 0.427000
-10.683000 0.421200 0.421200
-10.673000 0.396200 0.396200
-10.663000 0.380400 0.380400
-10.653000 0.360800 0.360800
-10.643000 0.333800 0.333800
-10.633000 0.325400 0.325400
-10.623000 0.320400 0.320400
-10.613000 0.315800 0.315800
-10.603000 0.310800 0.310800
-10.593000 0.306400 0.306400
-10.583000 0.302000 0.302000
-10.573000 0.296800 0.296800
-10.563000 0.292400 0.292400
-10.553000 0.287400 0.287400
-10.543000 0.283000 0.283000
-10.533000 0.279000 0.279000
-10.523000 0.276600 0.276600
-10.513000 0.274200 0.274200
-10.503000 0.271800 0.271800
-10.493000 0.269400 0.269400
-10.483000 0.267000 0.267000
-10.473000 0.265200 0.265200
-10.463000 0.262600 0.262600
-10.453000 0.260200 0.260200
-10.443000 0.258400 0.258400
-10.433000 0.256000 0.256000
-10.423000 0.254000 0.254000
-10.413000 0.251600 0.251600
-10.403000 0.249600 0.249600
-10.393000 0.226200 0.226200
-10.383000 0.226200 0.226200
-10.373000 0.226200 0.226200
-10.363000 0.222600 0.222600
-10.353000 0.217000 0.217000
-10.343000 0.213000 0.213000
-10.333000 0.209600 0.209600
-10.323000 0.205600 0.205600
-10.313000 0.201600 0.201600
-10.303000 0.198400 0.198400
-10.293000 0.194400 0.194400
-10.283000 0.191000 0.191000
-10.273000 0.187000 0.187000
-10.263000 0.183600 0.183600
-10.253000 0.179800 0.179800
-10.243000 0.176400 0.176400
-10.233000 0.172400 0.172400
-10.223000 0.169000 0.169000
-10.213000 0.165800 0.165800
-10.203000 0.161800 0.161800
-10.193000 0.158400 0.158400
-10.183000 0.155200 0.155200
-10.173000 0.151200 0.151200
-10.163000 0.149600 0.149600
-10.153000 0.149200 0.149200
-10.143000 0.149200 0.149200
-10.133000 0.149400 0.149400
-10.123000 0.149400 0.149400
-10.113000 0.149600 0.149600
-10.103000 0.150200 0.150200
-10.093000 0.150200 0.150200
-10.083000 0.150200 0.150200
-10.073000 0.150800 0.150800
-10.063000 0.150600 0.150600
-10.053000 0.151200 0.151200
-10.043000 0.120000 0.120000
-10.033000 0.122600 0.122600
-10.023000 0.125600 0.125600
-10.013000 0.124200 0.124200
-10.003000 0.121600 0.121600
-9.993000 0.118600 0.118600
-9.983000 0.115600 0.115600
-9.973000 0.113000 0.113000
-9.963000 0.110000 0.110000
-9.953000 0.107600 0.107600
-9.943000 0.104400 0.104400
-9.933000 0.102000 0.102000
-9.923000 0.099000 0.099000
-9.913000 0.096400 0.096400
-9.903000 0.093400 0.093400
-9.893000 0.099600 0.099600
-9.883000 0.449400 0.449400
-9.873000 0.796400 0.796400
-9.863000 1.133600 1.133600
-9.853000 1.613600 1.613600
-9.843000 1.783400 1.783400
-9.833000 1.321800 1.321800
-9.823000 0.904000 0.904000
-9.813000 0.843000 0.843000
-9.803000 0.788200 0.788200
-9.793000 0.740800 0.740800
-9.783000 0.862200 0.862200
-9.773000 0.664600 0.664600
-9.763000 0.462600 0.462600
-9.753000 0.466800 0.466800
-9.743000 0.542400 0.542400
-9.733000 0.616600 0.616600
-9.723000 0.535200 0.535200
-9.713000 0.537000 0.537000
-9.703000 0.600400 0.600400
-9.693000 0.485600 0.485600
-9.683000 0.466200 0.466200
-9.673000 0.458400 0.458400
-9.663000 0.450600 0.450600
-9.653000 0.442800 0.442800
-9.643000 0.422400 0.422400
-9.633000 0.408600 0.408600
-9.623000 0.394800 0.394800
-9.613000 0.390200 0.390200
-9.603000 0.390800 0.390800
-9.593000 0.391400 0.391400
-9.583000 0.392200 0.392200
-9.573000 0.392800 0.392800
-9.563000 0.393600 0.393600
-9.553000 0.394200 0.394200
-9.543000 0.395000 0.395000
-9.533000 0.395200 0.395200
-9.523000 0.395800 0.395800
-9.513000 0.396000 0.396000
-9.503000 0.380400 0.380400
-9.493000 0.376400 0.376400
-9.483000 0.372200 0.372200
-9.473000 0.368800 0.368800
-9.463000 0.364600 0.364600
-9.453000 0.361200 0.361200
-9.443000 0.413400 0.413400
-9.433000 0.393600 0.393600
-9.423000 0.382600 0.382600
-9.413000 0.374400 0.374400
-9.403000 0.366600 0.366600
-9.393000 0.363000 0.363000
-9.383000 0.373200 0.373200
-9.373000 0.383600 0.383600
-9.363000 0.394000 0.394000
-9.353000 0.404400 0.404400
-9.343000 0.414200 0.414200
-9.333000 0.424000 0.424000
-9.323000 0.432800 0.432800
-9.313000 0.430600 0.430600
-9.303000 0.437400 0.437400
-9.293000 0.445000 0.445000
-9.283000 0.452800 0.452800
-9.273000 0.368400 0.368400
-9.263000 0.362400 0.362400
-9.253000 0.356400 0.356400
-9.243000 0.351000 0.351000
-9.233000 0.346800 0.346800
-9.223000 0.342000 0.342000
-9.213000 0.337200 0.337200
-9.203000 0.332800 0.332800
-9.193000 0.328800 0.328800
-9.183000 0.325200 0.325200
-9.173000 0.321800 0.321800
-9.163000 0.318200 0.318200
-9.153000 0.314800 0.314800
-9.143000 0.311200 0.311200
-9.133000 0.307800 0.307800
-9.123000 0.305000 0.305000
-9.113000 0.300000 0.300000
-9.103000 0.295600 0.295600
-9.093000 0.288800 0.288800
-9.083000 0.280800 0.280800
-9.073000 0.276000 0.276000
-9.063000 0.272600 0.272600
-9.053000 0.270000 0.270000
-9.043000 0.266600 0.266600
-9.033000 0.263800 0.263800
-9.023000 0.260600 0.260600
-9.013000 0.257800 0.257800
-9.003000 0.255000 0.255000
-8.993000 0.252400 0.252400
-8.983000 0.249600 0.249600
-8.973000 0.246800 0.246800
-8.963000 0.244600 0.244600
-8.953000 0.242000 0.242000
-8.943000 0.239200 0.239200
-8.933000 0.230400 0.230400
-8.923000 0.228600 0.228600
-8.913000 0.227400 0.227400
-8.903000 0.225600 0.225600
-8.893000 0.224400 0.224400
-8.883000 0.223400 0.223400
-8.873000 0.222200 0.222200
-8.863000 0.221200 0.221200
-8.853000 0.220800 0.220800
-8.843000 0.220000 0.220000
-8.833000 0.215800 0.215800
-8.823000 0.211400 0.211400
-8.813000 0.207600 0.207600
-8.803000 0.203800 0.203800
-8.793000 0.200000 0.200000
-8.783000 0.196400 0.196400
-8.773000 0.192000 0.192000
-8.763000 0.188200 0.188200
-8.753000 0.185000 0.185000
-8.743000 0.182400 0.182400
-8.733000 0.180200 0.180200
-8.723000 0.177600 0.177600
-8.713000 0.175400 0.175400
-8.703000 0.172600 0.172600
-8.693000 0.170600 0.170600
-8.683000 0.167800 0.167800
-8.673000 0.165800 0.165800
-8.663000 0.163000 0.163000
-8.653000 0.167400 0.167400
-8.643000 0.176000 0.176000
-8.633000 0.167200 0.167200
-8.623000 0.158200 0.158200
-8.613000 0.150600 0.150600
-8.603000 0.142880 0.142880
-8.593000 0.135780 0.135780
-8.583000 0.135480 0.135480
-8.573000 0.129560 0.129560
-8.563000 0.124220 0.124220
-8.553000 0.119480 0.119480
-8.543000 0.119500 0.119500
-8.533000 0.119500 0.119500
-8.523000 0.118920 0.118920
-8.513000 0.118320 0.118320
-8.503000 0.117740 0.117740
-8.493000 0.117160 0.117160
-8.483000 0.116560 0.116560
-8.473000 0.115380 0.115380
-8.463000 0.114800 0.114800
-8.453000 0.114200 0.114200
-8.443000 0.113020 0.113020
-8.433000 0.112440 0.112440
-8.423000 0.111260 0.111260
-8.413000 0.110080 0.110080
-8.403000 0.108900 0.108900
-8.393000 0.108320 0.108320
-8.383000 0.107140 0.107140
-8.373000 0.113980 0.113980
-8.363000 0.124460 0.124460
-8.353000 0.131260 0.131260
-8.343000 0.138140 0.138140
-8.333000 0.139960 0.139960
-8.323000 0.141780 0.141780
-8.313000 0.143020 0.143020
-8.303000 0.144280 0.144280
-8.293000 0.144340 0.144340
-8.283000 0.142100 0.142100
-8.273000 0.139380 0.139380
-8.263000 0.136180 0.136180
-8.253000 0.096740 0.096740
-8.243000 0.093720 0.093720
-8.233000 0.090700 0.090700
-8.223000 0.087700 0.087700
-8.213000 0.084700 0.084700
-8.203000 0.082300 0.082300
-8.193000 0.078020 0.078020
-8.183000 0.074340 0.074340
-8.173000 0.071240 0.071240
-8.163000 0.067560 0.067560
-8.153000 0.065080 0.065080
-8.143000 0.064360 0.064360
-8.133000 0.060800 0.060800
-8.123000 0.057300 0.057300
-8.113000 0.053860 0.053860
-8.103000 0.050560 0.050560
-8.093000 0.047300 0.047300
-8.083000 0.044180 0.044180
-8.073000 0.041120 0.041120
-8.063000 0.038160 0.038160
-8.053000 0.034480 0.034480
-8.043000 0.032440 0.032440
-8.033000 0.030440 0.030440
-8.023000 0.028440 0.028440
-8.013000 0.031360 0.031360
-8.003000 0.041760 0.041760
-7.993000 0.048180 0.048180
-7.983000 0.050276 0.050276
-7.973000 0.050106 0.050106
-7.963000 0.047806 0.047806
-7.953000 0.043452 0.043452
-7.943000 0.036772 0.036772
-7.933000 0.027764 0.027764
-7.923000 0.016370 0.016370
-7.913000 0.000000 0.000000
-7.903000 0.000000 0.000000
-7.893000 0.893860 0.893860
-7.883000 0.060378 0.060378
-7.873000 0.060854 0.060854
-7.863000 0.061568 0.061568
-7.853000 0.061624 0.061624
-7.843000 0.062280 0.062280
-7.833000 0.062936 0.062936
-7.823000 0.062994 0.062994
-7.813000 0.063650 0.063650
-7.803000 0.063708 0.063708
-7.793000 0.064364 0.064364
-7.783000 0.064422 0.064422
-7.773000 0.065080 0.065080
-7.763000 0.065138 0.065138
-7.753000 0.065796 0.065796
-7.743000 0.065854 0.065854
-7.733000 0.066518 0.066518
-7.723000 0.067198 0.067198
-7.713000 0.068480 0.068480
-7.703000 0.069164 0.069164
-7.693000 0.070460 0.070460
-7.683000 0.071140 0.071140
-7.673000 0.071820 0.071820
-7.663000 0.073120 0.073120
-7.653000 0.073820 0.073820
-7.643000 0.074500 0.074500
-7.633000 0.075920 0.075920
-7.623000 0.087280 0.087280
-7.613000 0.098600 0.098600
-7.603000 0.110500 0.110500
-7.593000 0.121780 0.121780
-7.583000 0.133020 0.133020
-7.573000 0.144860 0.144860
-7.563000 0.114580 0.114580
-7.553000 0.115900 0.115900
-7.543000 0.116600 0.116600
-7.533000 0.117920 0.117920
-7.523000 0.118620 0.118620
-7.513000 0.119920 0.119920
-7.503000 0.120600 0.120600
-7.493000 0.121300 0.121300
-7.483000 0.122580 0.122580
-7.473000 0.123260 0.123260
-7.463000 0.123940 0.123940
-7.453000 0.129700 0.129700
-7.443000 0.129700 0.129700
-7.433000 0.129080 0.129080
-7.423000 0.129080 0.129080
-7.413000 0.128460 0.128460
-7.403000 0.127840 0.127840
-7.393000 0.127860 0.127860
-7.383000 0.128540 0.128540
-7.373000 0.129200 0.129200
-7.363000 0.129260 0.129260
-7.353000 0.129920 0.129920
-7.343000 0.129960 0.129960
-7.333000 0.130620 0.130620
-7.323000 0.130680 0.130680
-7.313000 0.131340 0.131340
-7.303000 0.132640 0.132640
-7.293000 0.133300 0.133300
-7.283000 0.133960 0.133960
-7.273000 0.134600 0.134600
-7.263000 0.135260 0.135260
-7.253000 0.135900 0.135900
-7.243000 0.135940 0.135940
-7.233000 0.137280 0.137280
-7.223000 0.139220 0.139220
-7.213000 0.140580 0.140580
-7.203000 0.141920 0.141920
-7.193000 0.143260 0.143260
-7.183000 0.144020 0.144020
-7.173000 0.145360 0.145360
-7.163000 0.146100 0.146100
-7.153000 0.147420 0.147420
-7.143000 0.148160 0.148160
-7.133000 0.148220 0.148220
-7.123000 0.147640 0.147640
-7.113000 0.147080 0.147080
-7.103000 0.147100 0.147100
-7.093000 0.146540 0.146540
-7.083000 0.145960 0.145960
-7.073000 0.145360 0.145360
-7.063000 0.144780 0.144780
-7.053000 0.144180 0.144180
-7.043000 0.145460 0.145460
-7.033000 0.146760 0.146760
-7.023000 0.147460 0.147460
-7.013000 0.182940 0.182940
-7.003000 0.182600 0.182600
-6.993000 0.187140 0.187140
-6.983000 0.191040 0.191040
-6.973000 0.191800 0.191800
-6.963000 0.193120 0.193120
-6.953000 0.193060 0.193060
-6.943000 0.188560 0.188560
-6.933000 0.183500 0.183500
-6.923000 0.179040 0.179040
-6.913000 0.174000 0.174000
-6.903000 0.169600 0.169600
-6.893000 0.164600 0.164600
-6.883000 0.161000 0.161000
-6.873000 0.158060 0.158060
-6.863000 0.154500 0.154500
-6.853000 0.165220 0.165220
-6.843000 0.166580 0.166580
-6.833000 0.167340 0.167340
-6.823000 0.168080 0.168080
-6.813000 0.168220 0.168220
-6.803000 0.167100 0.167100
-6.793000 0.209540 0.209540
-6.783000 0.230360 0.230360
-6.773000 0.251940 0.251940
-6.763000 0.262600 0.262600
-6.753000 0.229280 0.229280
-6.743000 0.194440 0.194440
-6.733000 0.178180 0.178180
-6.723000 0.154820 0.154820
-6.713000 0.131520 0.131520
-6.703000 0.099700 0.099700
-6.693000 0.048256 0.048256
-6.683000 0.001129 0.001129
-6.673000 0.000000 0.000000
-6.663000 0.000000 0.000000
-6.653000 0.000000 0.000000
-6.643000 0.000000 0.000000
-6.633000 0.000000 0.000000
-6.623000 0.000000 0.000000
-6.613000 0.000000 0.000000
-6.603000 0.000000 0.000000
-6.593000 0.000000 0.000000
-6.583000 0.000000 0.000000
-6.573000 0.000000 0.000000
-6.563000 0.000000 0.000000
-6.553000 0.000000 0.000000
-6.543000 0.000000 0.000000
-6.533000 0.000000 0.000000
-6.523000 0.000000 0.000000
-6.513000 0.000000 0.000000
-6.503000 0.000000 0.000000
-6.493000 0.000000 0.000000
-6.483000 0.000000 0.000000
-6.473000 0.000000 0.000000
-6.463000 0.000000 0.000000
-6.453000 0.000000 0.000000
-6.443000 0.000000 0.000000
-6.433000 0.000000 0.000000
-6.423000 0.000000 0.000000
-6.413000 0.000000 0.000000
-6.403000 0.000000 0.000000
-6.393000 0.000000 0.000000
-6.383000 0.000000 0.000000
-6.373000 0.000000 0.000000
-6.363000 0.000000 0.000000
-6.353000 0.000000 0.000000
-6.343000 0.000000 0.000000
-6.333000 0.000000 0.000000
-6.323000 0.000000 0.000000
-6.313000 0.000000 0.000000
-6.303000 0.000000 0.000000
-6.293000 0.000000 0.000000
-6.283000 0.000000 0.000000
-6.273000 0.000000 0.000000
-6.263000 0.000000 0.000000
-6.253000 0.000000 0.000000
-6.243000 0.000000 0.000000
-6.233000 0.000000 0.000000
-6.223000 0.000000 0.000000
-6.213000 0.000000 0.000000
-6.203000 0.000000 0.000000
-6.193000 0.000000 0.000000
-6.183000 0.000000 0.000000
-6.173000 0.000000 0.000000
-6.163000 0.000000 0.000000
-6.153000 0.000000 0.000000
-6.143000 0.000000 0.000000
-6.133000 0.000000 0.000000
-6.123000 0.000000 0.000000
-6.113000 0.000000 0.000000
-6.103000 0.000000 0.000000
-6.093000 0.000000 0.000000
-6.083000 0.000000 0.000000
-6.073000 0.000000 0.000000
-6.063000 0.000000 0.000000
-6.053000 0.000000 0.000000
-6.043000 0.000000 0.000000
-6.033000 0.000000 0.000000
-6.023000 0.000000 0.000000
-6.013000 0.000000 0.000000
-6.003000 0.000000 0.000000
-5.993000 0.000000 0.000000
-5.983000 0.000000 0.000000
-5.973000 0.000000 0.000000
-5.963000 0.000000 0.000000
-5.953000 0.000000 0.000000
-5.943000 0.000000 0.000000
-5.933000 0.000000 0.000000
-5.923000 0.000000 0.000000
-5.913000 0.000000 0.000000
-5.903000 0.000000 0.000000
-5.893000 0.000000 0.000000
-5.883000 0.000000 0.000000
-5.873000 0.000000 0.000000
-5.863000 0.000000 0.000000
-5.853000 0.000000 0.000000
-5.843000 0.000000 0.000000
-5.833000 0.000000 0.000000
-5.823000 0.000000 0.000000
-5.813000 0.000000 0.000000
-5.803000 0.000000 0.000000
-5.793000 0.000000 0.000000
-5.783000 0.000000 0.000000
-5.773000 0.000000 0.000000
-5.763000 0.000000 0.000000
-5.753000 0.000000 0.000000
-5.743000 0.000000 0.000000
-5.733000 0.000000 0.000000
-5.723000 0.000000 0.000000
-5.713000 0.000000 0.000000
-5.703000 0.000000 0.000000
-5.693000 0.000000 0.000000
-5.683000 0.000000 0.000000
-5.673000 0.000000 0.000000
-5.663000 0.000000 0.000000
-5.653000 0.000000 0.000000
-5.643000 0.000000 0.000000
-5.633000 0.000000 0.000000
-5.623000 0.000000 0.000000
-5.613000 0.000000 0.000000
-5.603000 0.000000 0.000000
-5.593000 0.000000 0.000000
-5.583000 0.000000 0.000000
-5.573000 0.000000 0.000000
-5.563000 0.000000 0.000000
-5.553000 0.000000 0.000000
-5.543000 0.000000 0.000000
-5.533000 0.000000 0.000000
-5.523000 0.000000 0.000000
-5.513000 0.000000 0.000000
-5.503000 0.000000 0.000000
-5.493000 0.007260 0.007260
-5.483000 0.032886 0.032886
-5.473000 0.058100 0.058100
-5.463000 0.082842 0.082842
-5.453000 0.107472 0.107472
-5.443000 0.132109 0.132109
-5.433000 0.156155 0.156155
-5.423000 0.179608 0.179608
-5.413000 0.203068 0.203068
-5.403000 0.226538 0.226538
-5.393000 0.183944 0.183944
-5.383000 0.145462 0.145462
-5.373000 0.147884 0.147884
-5.363000 0.150304 0.150304
-5.353000 0.152726 0.152726
-5.343000 0.154548 0.154548
-5.333000 0.156970 0.156970
-5.323000 0.159394 0.159394
-5.313000 0.161218 0.161218
-5.303000 0.163642 0.163642
-5.293000 0.165466 0.165466
-5.283000 0.167292 0.167292
-5.273000 0.169718 0.169718
-5.263000 0.171544 0.171544
-5.253000 0.173370 0.173370
-5.243000 0.175198 0.175198
-5.233000 0.177024 0.177024
-5.223000 0.178852 0.178852
-5.213000 0.179478 0.179478
-5.203000 0.180104 0.180104
-5.193000 0.180128 0.180128
-5.183000 0.180754 0.180754
-5.173000 0.180778 0.180778
-5.163000 0.181402 0.181402
-5.153000 0.182026 0.182026
-5.143000 0.182650 0.182650
-5.133000 0.183274 0.183274
-5.123000 0.184500 0.184500
-5.113000 0.185126 0.185126
-5.103000 0.186352 0.186352
-5.093000 0.186978 0.186978
-5.083000 0.188202 0.188202
-5.073000 0.188828 0.188828
-5.063000 0.190054 0.190054
-5.053000 0.190680 0.190680
-5.043000 0.191306 0.191306
-5.033000 0.192532 0.192532
-5.023000 0.193158 0.193158
-5.013000 0.193784 0.193784
-5.003000 0.195010 0.195010
-4.993000 0.195636 0.195636
-4.983000 0.196262 0.196262
-4.973000 0.196888 0.196888
-4.963000 0.216900 0.216900
-4.953000 0.215700 0.215700
-4.943000 0.216322 0.216322
-4.933000 0.217550 0.217550
-4.923000 0.218186 0.218186
-4.913000 0.217622 0.217622
-4.903000 0.217660 0.217660
-4.893000 0.217104 0.217104
-4.883000 0.217152 0.217152
-4.873000 0.217808 0.217808
-4.863000 0.219676 0.219676
-4.853000 0.221546 0.221546
-4.843000 0.224020 0.224020
-4.833000 0.227720 0.227720
-4.823000 0.231400 0.231400
-4.813000 0.235700 0.235700
-4.803000 0.238180 0.238180
-4.793000 0.240060 0.240060
-4.783000 0.241320 0.241320
-4.773000 0.241380 0.241380
-4.763000 0.240840 0.240840
-4.753000 0.254820 0.254820
-4.743000 0.334160 0.334160
-4.733000 0.329980 0.329980
-4.723000 0.287060 0.287060
-4.713000 0.273800 0.273800
-4.703000 0.269620 0.269620
-4.693000 0.277060 0.277060
-4.683000 0.304140 0.304140
-4.673000 0.310460 0.310460
-4.663000 0.318000 0.318000
-4.653000 0.324960 0.324960
-4.643000 0.331940 0.331940
-4.633000 0.340780 0.340780
-4.623000 0.361800 0.361800
-4.613000 0.396240 0.396240
-4.603000 0.445300 0.445300
-4.593000 0.414180 0.414180
-4.583000 0.392060 0.392060
-4.573000 0.369000 0.369000
-4.563000 0.509660 0.509660
-4.553000 0.421440 0.421440
-4.543000 0.415400 0.415400
-4.533000 0.462640 0.462640
-4.523000 0.218440 0.218440
-4.513000 0.211280 0.211280
-4.503000 0.204140 0.204140
-4.493000 0.197580 0.197580
-4.483000 0.190440 0.190440
-4.473000 0.183900 0.183900
-4.463000 0.177380 0.177380
-4.453000 0.179860 0.179860
-4.443000 0.195580 0.195580
-4.433000 0.241660 0.241660
-4.423000 0.294420 0.294420
-4.413000 0.343520 0.343520
-4.403000 0.389600 0.389600
-4.393000 0.432020 0.432020
-4.383000 0.531000 0.531000
-4.373000 0.397200 0.397200
-4.363000 0.380240 0.380240
-4.353000 0.366340 0.366340
-4.343000 0.355600 0.355600
-4.333000 0.350380 0.350380
-4.323000 0.347000 0.347000
-4.313000 0.345440 0.345440
-4.303000 0.342700 0.342700
-4.293000 0.341900 0.341900
-4.283000 0.340480 0.340480
-4.273000 0.339000 0.339000
-4.263000 0.339340 0.339340
-4.253000 0.354140 0.354140
-4.243000 0.359640 0.359640
-4.233000 0.384580 0.384580
-4.223000 0.410900 0.410900
-4.213000 0.437340 0.437340
-4.203000 0.463900 0.463900
-4.193000 0.495000 0.495000
-4.183000 0.519400 0.519400
-4.173000 0.543200 0.543200
-4.163000 0.585200 0.585200
-4.153000 0.629600 0.629600
-4.143000 0.666400 0.666400
-4.133000 0.686800 0.686800
-4.123000 0.688200 0.688200
-4.113000 0.883800 0.883800
-4.103000 1.333200 1.333200
-4.093000 1.175000 1.175000
-4.083000 0.481200 0.481200
-4.073000 0.344200 0.344200
-4.063000 0.324160 0.324160
-4.053000 0.308720 0.308720
-4.043000 0.297860 0.297860
-4.033000 0.291500 0.291500
-4.023000 0.279140 0.279140
-4.013000 0.266180 0.266180
-4.003000 0.253860 0.253860
-3.993000 0.241560 0.241560
-3.983000 0.229860 0.229860
-3.973000 0.213820 0.213820
-3.963000 0.205380 0.205380
-3.953000 0.198240 0.198240
-3.943000 0.191140 0.191140
-3.933000 0.184080 0.184080
-3.923000 0.177040 0.177040
-3.913000 0.170640 0.170640
-3.903000 0.163660 0.163660
-3.893000 0.157340 0.157340
-3.883000 0.153460 0.153460
-3.873000 0.150200 0.150200
-3.863000 0.146960 0.146960
-3.853000 0.143720 0.143720
-3.843000 0.140500 0.140500
-3.833000 0.137880 0.137880
-3.823000 0.135300 0.135300
-3.813000 0.133340 0.133340
-3.803000 0.131380 0.131380
-3.793000 0.129440 0.129440
-3.783000 0.126900 0.126900
-3.773000 0.124940 0.124940
-3.763000 0.123000 0.123000
-3.753000 0.121080 0.121080
-3.743000 0.119140 0.119140
-3.733000 0.117200 0.117200
-3.723000 0.115280 0.115280
-3.713000 0.112760 0.112760
-3.703000 0.110840 0.110840
-3.693000 0.109520 0.109520
-3.683000 0.107600 0.107600
-3.673000 0.105700 0.105700
-3.663000 0.103800 0.103800
-3.653000 0.101880 0.101880
-3.643000 0.099980 0.099980
-3.633000 0.098700 0.098700
-3.623000 0.096800 0.096800
-3.613000 0.094920 0.094920
-3.603000 0.093620 0.093620
-3.593000 0.089900 0.089900
-3.583000 0.088620 0.088620
-3.573000 0.086740 0.086740
-3.563000 0.085440 0.085440
-3.553000 0.083560 0.083560
-3.543000 0.082280 0.082280
-3.533000 0.081000 0.081000
-3.523000 0.079740 0.079740
-3.513000 0.079080 0.079080
-3.503000 0.077800 0.077800
-3.493000 0.077140 0.077140
-3.483000 0.075880 0.075880
-3.473000 0.075240 0.075240
-3.463000 0.073980 0.073980
-3.453000 0.073320 0.073320
-3.443000 0.072060 0.072060
-3.433000 0.071400 0.071400
-3.423000 0.070160 0.070160
-3.413000 0.069500 0.069500
-3.403000 0.068260 0.068260
-3.393000 0.067600 0.067600
-3.383000 0.066360 0.066360
-3.373000 0.065720 0.065720
-3.363000 0.065060 0.065060
-3.353000 0.063820 0.063820
-3.343000 0.063184 0.063184
-3.333000 0.062542 0.062542
-3.323000 0.061298 0.061298
-3.313000 0.060228 0.060228
-3.303000 0.059160 0.059160
-3.293000 0.058032 0.058032
-3.283000 0.056966 0.056966
-3.273000 0.055962 0.055962
-3.263000 0.054898 0.054898
-3.253000 0.053838 0.053838
-3.243000 0.053018 0.053018
-3.233000 0.052322 0.052322
-3.223000 0.051626 0.051626
-3.213000 0.050932 0.050932
-3.203000 0.050236 0.050236
-3.193000 0.049542 0.049542
-3.183000 0.048850 0.048850
-3.173000 0.048156 0.048156
-3.163000 0.047526 0.047526
-3.153000 0.046834 0.046834
-3.143000 0.046204 0.046204
-3.133000 0.045514 0.045514
-3.123000 0.044886 0.044886
-3.113000 0.044256 0.044256
-3.103000 0.043630 0.043630
-3.093000 0.042696 0.042696
-3.083000 0.042072 0.042072
-3.073000 0.041448 0.041448
-3.063000 0.040824 0.040824
-3.053000 0.040200 0.040200
-3.043000 0.039576 0.039576
-3.033000 0.038954 0.038954
-3.023000 0.038332 0.038332
-3.013000 0.037710 0.037710
-3.003000 0.037148 0.037148
-2.993000 0.036526 0.036526
-2.983000 0.035966 0.035966
-2.973000 0.035346 0.035346
-2.963000 0.034786 0.034786
-2.953000 0.034226 0.034226
-2.943000 0.033668 0.033668
-2.933000 0.033048 0.033048
-2.923000 0.032490 0.032490
-2.913000 0.031198 0.031198
-2.903000 0.030638 0.030638
-2.893000 0.030138 0.030138
-2.883000 0.029638 0.029638
-2.873000 0.029138 0.029138
-2.863000 0.028640 0.028640
-2.853000 0.028142 0.028142
-2.843000 0.027644 0.027644
-2.833000 0.027146 0.027146
-2.823000 0.026648 0.026648
-2.813000 0.026212 0.026212
-2.803000 0.025714 0.025714
-2.793000 0.025218 0.025218
-2.783000 0.024782 0.024782
-2.773000 0.024346 0.024346
-2.763000 0.023850 0.023850
-2.753000 0.023416 0.023416
-2.743000 0.022982 0.022982
-2.733000 0.022608 0.022608
-2.723000 0.022174 0.022174
-2.713000 0.021804 0.021804
-2.703000 0.021372 0.021372
-2.693000 0.021002 0.021002
-2.683000 0.020572 0.020572
-2.673000 0.020204 0.020204
-2.663000 0.019836 0.019836
-2.653000 0.019410 0.019410
-2.643000 0.019042 0.019042
-2.633000 0.018616 0.018616
-2.623000 0.018188 0.018188
-2.613000 0.017700 0.017700
-2.603000 0.017212 0.017212
-2.593000 0.016784 0.016784
-2.583000 0.016296 0.016296
-2.573000 0.015866 0.015866
-2.563000 0.015437 0.015437
-2.553000 0.014948 0.014948
-2.543000 0.014519 0.014519
-2.533000 0.014029 0.014029
-2.523000 0.013600 0.013600
-2.513000 0.013172 0.013172
-2.503000 0.012743 0.012743
-2.493000 0.012315 0.012315
-2.483000 0.011886 0.011886
-2.473000 0.011458 0.011458
-2.463000 0.011031 0.011031
-2.453000 0.010663 0.010663
-2.443000 0.010236 0.010236
-2.433000 0.009869 0.009869
-2.423000 0.009443 0.009443
-2.413000 0.009076 0.009076
-2.403000 0.008710 0.008710
-2.393000 0.008344 0.008344
-2.383000 0.007978 0.007978
-2.373000 0.007613 0.007613
-2.363000 0.007308 0.007308
-2.353000 0.006943 0.006943
-2.343000 0.006638 0.006638
-2.333000 0.006334 0.006334
-2.323000 0.007651 0.007651
-2.313000 0.007050 0.007050
-2.303000 0.006449 0.006449
-2.293000 0.007423 0.007423
-2.283000 0.006517 0.006517
-2.273000 0.005708 0.005708
-2.263000 0.004929 0.004929
-2.253000 0.004205 0.004205
-2.243000 0.003535 0.003535
-2.233000 0.002925 0.002925
-2.223000 0.002370 0.002370
-2.213000 0.001875 0.001875
-2.203000 0.001428 0.001428
-2.193000 0.001048 0.001048
-2.183000 0.000717 0.000717
-2.173000 0.000447 0.000447
-2.163000 0.000232 0.000232
-2.153000 0.000074 0.000074
-2.143000 0.000000 0.000000
-2.133000 0.000000 0.000000
-2.123000 0.000000 0.000000
-2.113000 0.000000 0.000000
-2.103000 0.000000 0.000000
-2.093000 0.000000 0.000000
-2.083000 0.000000 0.000000
-2.073000 0.000000 0.000000
-2.063000 0.000000 0.000000
-2.053000 0.000000 0.000000
-2.043000 0.000000 0.000000
-2.033000 0.000000 0.000000
-2.023000 0.000000 0.000000
-2.013000 0.000000 0.000000
-2.003000 0.000000 0.000000
-1.993000 0.000000 0.000000
-1.983000 0.000000 0.000000
-1.973000 0.000000 0.000000
-1.963000 0.000000 0.000000
-1.953000 0.000000 0.000000
-1.943000 0.000000 0.000000
-1.933000 0.000000 0.000000
-1.923000 0.000000 0.000000
-1.913000 0.000000 0.000000
-1.903000 0.000000 0.000000
-1.893000 0.000000 0.000000
-1.883000 0.000000 0.000000
-1.873000 0.000000 0.000000
-1.863000 0.000000 0.000000
-1.853000 0.000000 0.000000
-1.843000 0.000000 0.000000
-1.833000 0.000000 0.000000
-1.823000 0.000000 0.000000
-1.813000 0.000000 0.000000
-1.803000 0.000000 0.000000
-1.793000 0.000000 0.000000
-1.783000 0.000000 0.000000
-1.773000 0.000000 0.000000
-1.763000 0.000000 0.000000
-1.753000 0.000000 0.000000
-1.743000 0.000000 0.000000
-1.733000 0.000000 0.000000
-1.723000 0.000000 0.000000
-1.713000 0.000000 0.000000
-1.703000 0.000000 0.000000
-1.693000 0.000000 0.000000
-1.683000 0.000000 0.000000
-1.673000 0.000000 0.000000
-1.663000 0.000000 0.000000
-1.653000 0.000000 0.000000
-1.643000 0.000000 0.000000
-1.633000 0.000000 0.000000
-1.623000 0.000000 0.000000
-1.613000 0.000000 0.000000
-1.603000 0.000000 0.000000
-1.593000 0.000000 0.000000
-1.583000 0.000000 0.000000
-1.573000 0.000000 0.000000
-1.563000 0.000000 0.000000
-1.553000 0.000000 0.000000
-1.543000 0.000000 0.000000
-1.533000 0.000000 0.000000
-1.523000 0.000000 0.000000
-1.513000 0.000000 0.000000
-1.503000 0.000000 0.000000
-1.493000 0.000000 0.000000
-1.483000 0.000000 0.000000
-1.473000 0.000000 0.000000
-1.463000 0.000000 0.000000
-1.453000 0.000000 0.000000
-1.443000 0.000000 0.000000
-1.433000 0.000000 0.000000
-1.423000 0.000000 0.000000
-1.413000 0.000000 0.000000
-1.403000 0.000000 0.000000
-1.393000 0.000000 0.000000
-1.383000 0.000000 0.000000
-1.373000 0.000000 0.000000
-1.363000 0.000000 0.000000
-1.353000 0.000000 0.000000
-1.343000 0.000000 0.000000
-1.333000 0.000000 0.000000
-1.323000 0.000000 0.000000
-1.313000 0.000000 0.000000
-1.303000 0.000000 0.000000
-1.293000 0.000000 0.000000
-1.283000 0.000000 0.000000
-1.273000 0.000000 0.000000
-1.263000 0.000000 0.000000
-1.253000 0.000000 0.000000
-1.243000 0.000000 0.000000
-1.233000 0.000000 0.000000
-1.223000 0.000000 0.000000
-1.213000 0.000000 0.000000
-1.203000 0.000000 0.000000
-1.193000 0.000000 0.000000
-1.183000 0.000000 0.000000
-1.173000 0.000000 0.000000
-1.163000 0.000000 0.000000
-1.153000 0.000000 0.000000
-1.143000 0.000000 0.000000
-1.133000 0.000000 0.000000
-1.123000 0.000000 0.000000
-1.113000 0.000000 0.000000
-1.103000 0.000000 0.000000
-1.093000 0.000000 0.000000
-1.083000 0.000000 0.000000
-1.073000 0.000000 0.000000
-1.063000 0.000000 0.000000
-1.053000 0.000000 0.000000
-1.043000 0.000000 0.000000
-1.033000 0.000000 0.000000
-1.023000 0.000000 0.000000
-1.013000 0.000000 0.000000
-1.003000 0.000000 0.000000
-0.993000 0.000000 0.000000
-0.983000 0.000000 0.000000
-0.973000 0.000000 0.000000
-0.963000 0.000000 0.000000
-0.953000 0.000000 0.000000
-0.943000 0.000000 0.000000
-0.933000 0.000000 0.000000
-0.923000 0.000000 0.000000
-0.913000 0.000000 0.000000
-0.903000 0.000000 0.000000
-0.893000 0.000000 0.000000
-0.883000 0.000000 0.000000
-0.873000 0.000000 0.000000
-0.863000 0.000000 0.000000
-0.853000 0.000000 0.000000
-0.843000 0.000000 0.000000
-0.833000 0.000000 0.000000
-0.823000 0.000000 0.000000
-0.813000 0.000000 0.000000
-0.803000 0.000000 0.000000
-0.793000 0.000000 0.000000
-0.783000 0.000000 0.000000
-0.773000 0.000000 0.000000
-0.763000 0.000000 0.000000
-0.753000 0.000000 0.000000
-0.743000 0.000000 0.000000
-0.733000 0.000000 0.000000
-0.723000 0.000000 0.000000
-0.713000 0.000000 0.000000
-0.703000 0.000000 0.000000
-0.693000 0.000000 0.000000
-0.683000 0.000000 0.000000
-0.673000 0.000000 0.000000
-0.663000 0.000000 0.000000
-0.653000 0.000000 0.000000
-0.643000 0.000000 0.000000
-0.633000 0.000000 0.000000
-0.623000 0.000000 0.000000
-0.613000 0.000000 0.000000
-0.603000 0.000000 0.000000
-0.593000 0.000000 0.000000
-0.583000 0.000000 0.000000
-0.573000 0.000000 0.000000
-0.563000 0.000000 0.000000
-0.553000 0.000000 0.000000
-0.543000 0.000000 0.000000
-0.533000 0.000000 0.000000
-0.523000 0.000000 0.000000
-0.513000 0.000000 0.000000
-0.503000 0.000000 0.000000
-0.493000 0.000000 0.000000
-0.483000 0.000000 0.000000
-0.473000 0.000000 0.000000
-0.463000 0.000000 0.000000
-0.453000 0.000000 0.000000
-0.443000 0.000000 0.000000
-0.433000 0.000000 0.000000
-0.423000 0.000000 0.000000
-0.413000 0.000000 0.000000
-0.403000 0.000000 0.000000
-0.393000 0.000000 0.000000
-0.383000 0.000000 0.000000
-0.373000 0.000000 0.000000
-0.363000 0.000000 0.000000
-0.353000 0.000000 0.000000
-0.343000 0.000000 0.000000
-0.333000 0.000000 0.000000
-0.323000 0.000000 0.000000
-0.313000 0.000000 0.000000
-0.303000 0.000000 0.000000
-0.293000 0.000000 0.000000
-0.283000 0.000000 0.000000
-0.273000 0.000000 0.000000
-0.263000 0.000000 0.000000
-0.253000 0.000000 0.000000
-0.243000 0.000000 0.000000
-0.233000 0.000000 0.000000
-0.223000 0.000000 0.000000
-0.213000 0.000000 0.000000
-0.203000 0.000000 0.000000
-0.193000 0.000000 0.000000
-0.183000 0.000000 0.000000
-0.173000 0.000000 0.000000
-0.163000 0.000000 0.000000
-0.153000 0.000000 0.000000
-0.143000 0.000000 0.000000
-0.133000 0.000000 0.000000
-0.123000 0.000000 0.000000
-0.113000 0.000000 0.000000
-0.103000 0.000000 0.000000
-0.093000 0.000000 0.000000
-0.083000 0.000000 0.000000
-0.073000 0.000000 0.000000
-0.063000 0.000000 0.000000
-0.053000 0.000000 0.000000
-0.043000 0.000000 0.000000
-0.033000 0.000000 0.000000
-0.023000 0.000000 0.000000
-0.013000 0.000000 0.000000
-0.003000 0.000000 0.000000
0.007000 0.000000 0.000000
0.017000 0.000000 0.000000
0.027000 0.000000 0.000000
0.037000 0.000000 0.000000
0.047000 0.000000 0.000000
0.057000 0.000000 0.000000
0.067000 0.000000 0.000000
0.077000 0.000000 0.000000
0.087000 0.000000 0.000000
0.097000 0.000000 0.000000
0.107000 0.000000 0.000000
0.117000 0.000090 0.000090
0.127000 0.004755 0.004755
0.137000 0.009371 0.009371
0.147000 0.014003 0.014003
0.157000 0.018582 0.018582
0.167000 0.023165 0.023165
0.177000 0.027693 0.027693
0.187000 0.032167 0.032167
0.197000 0.036645 0.036645
0.207000 0.041130 0.041130
0.217000 0.045558 0.045558
0.227000 0.049932 0.049932
0.237000 0.054312 0.054312
0.247000 0.058636 0.058636
0.257000 0.062906 0.062906
0.267000 0.067180 0.067180
0.277000 0.071460 0.071460
0.287000 0.059088 0.059088
0.297000 0.061106 0.061106
0.307000 0.062948 0.062948
0.317000 0.049068 0.049068
0.327000 0.049590 0.049590
0.337000 0.050172 0.050172
0.347000 0.050696 0.050696
0.357000 0.051220 0.051220
0.367000 0.051744 0.051744
0.377000 0.052270 0.052270
0.387000 0.052796 0.052796
0.397000 0.053264 0.053264
0.407000 0.053792 0.053792
0.417000 0.054320 0.054320
0.427000 0.054850 0.054850
0.437000 0.055320 0.055320
0.447000 0.055850 0.055850
0.457000 0.056382 0.056382
0.467000 0.056854 0.056854
0.477000 0.057386 0.057386
0.487000 0.057860 0.057860
0.497000 0.058394 0.058394
0.507000 0.058870 0.058870
0.517000 0.059346 0.059346
0.527000 0.059882 0.059882
0.537000 0.060358 0.060358
0.547000 0.060838 0.060838
0.557000 0.061442 0.061442
0.567000 0.061868 0.061868
0.577000 0.062536 0.062536
0.587000 0.063200 0.063200
0.597000 0.063880 0.063880
0.607000 0.064560 0.064560
0.617000 0.065240 0.065240
0.627000 0.065900 0.065900
0.637000 0.066000 0.066000
0.647000 0.066680 0.066680
0.657000 0.067360 0.067360
0.667000 0.068040 0.068040
0.677000 0.068740 0.068740
0.687000 0.068820 0.068820
0.697000 0.068900 0.068900
0.707000 0.069580 0.069580
0.717000 0.069660 0.069660
0.727000 0.069760 0.069760
0.737000 0.069240 0.069240
0.747000 0.069320 0.069320
0.757000 0.069400 0.069400
0.767000 0.068880 0.068880
0.777000 0.068960 0.068960
0.787000 0.068460 0.068460
0.797000 0.068540 0.068540
0.807000 0.068020 0.068020
0.817000 0.067500 0.067500
0.827000 0.067600 0.067600
0.837000 0.067680 0.067680
0.847000 0.067180 0.067180
0.857000 0.067260 0.067260
0.867000 0.067360 0.067360
0.877000 0.067440 0.067440
0.887000 0.067540 0.067540
0.897000 0.068240 0.068240
0.907000 0.068320 0.068320
0.917000 0.068420 0.068420
0.927000 0.069120 0.069120
0.937000 0.069200 0.069200
0.947000 0.069900 0.069900
0.957000 0.078700 0.078700
0.967000 0.078680 0.078680
0.977000 0.078060 0.078060
0.987000 0.078060 0.078060
0.997000 0.078040 0.078040
1.007000 0.078060 0.078060
1.017000 0.078060 0.078060
1.027000 0.078680 0.078680
1.037000 0.078700 0.078700
1.047000 0.079320 0.079320
1.057000 0.079360 0.079360
1.067000 0.080000 0.080000
1.077000 0.080640 0.080640
1.087000 0.081300 0.081300
1.097000 0.082560 0.082560
1.107000 0.083220 0.083220
1.117000 0.083900 0.083900
1.127000 0.084640 0.084640
1.137000 0.088840 0.088840
1.147000 0.092400 0.092400
1.157000 0.095920 0.095920
1.167000 0.098800 0.098800
1.177000 0.101060 0.101060
1.187000 0.098460 0.098460
1.197000 0.100020 0.100020
1.207000 0.101520 0.101520
1.217000 0.102400 0.102400
1.227000 0.103840 0.103840
1.237000 0.104040 0.104040
1.247000 0.104800 0.104800
1.257000 0.104920 0.104920
1.267000 0.105000 0.105000
1.277000 0.105060 0.105060
1.287000 0.105060 0.105060
1.297000 0.105820 0.105820
1.307000 0.106720 0.106720
1.317000 0.108220 0.108220
1.327000 0.110320 0.110320
1.337000 0.111840 0.111840
1.347000 0.113380 0.113380
1.357000 0.114320 0.114320
1.367000 0.115880 0.115880
1.377000 0.116840 0.116840
1.387000 0.118400 0.118400
1.397000 0.120000 0.120000
1.407000 0.121580 0.121580
1.417000 0.123200 0.123200
1.427000 0.124120 0.124120
1.437000 0.124200 0.124200
1.447000 0.123740 0.123740
1.457000 0.123900 0.123900
1.467000 0.124100 0.124100
1.477000 0.124920 0.124920
1.487000 0.125180 0.125180
1.497000 0.126080 0.126080
1.507000 0.126400 0.126400
1.517000 0.127360 0.127360
1.527000 0.128960 0.128960
1.537000 0.130000 0.130000
1.547000 0.131660 0.131660
1.557000 0.132740 0.132740
1.567000 0.134400 0.134400
1.577000 0.136200 0.136200
1.587000 0.137800 0.137800
1.597000 0.139600 0.139600
1.607000 0.140600 0.140600
1.617000 0.141400 0.141400
1.627000 0.142400 0.142400
1.637000 0.142600 0.142600
1.647000 0.142800 0.142800
1.657000 0.142800 0.142800
1.667000 0.142800 0.142800
1.677000 0.156000 0.156000
1.687000 0.157800 0.157800
1.697000 0.159400 0.159400
1.707000 0.161200 0.161200
1.717000 0.163600 0.163600
1.727000 0.165200 0.165200
1.737000 0.167000 0.167000
1.747000 0.168600 0.168600
1.757000 0.170400 0.170400
1.767000 0.172000 0.172000
1.777000 0.173800 0.173800
1.787000 0.174800 0.174800
1.797000 0.176600 0.176600
1.807000 0.177600 0.177600
1.817000 0.179200 0.179200
1.827000 0.180400 0.180400
1.837000 0.182000 0.182000
1.847000 0.183800 0.183800
1.857000 0.184800 0.184800
1.867000 0.186600 0.186600
1.877000 0.187800 0.187800
1.887000 0.189400 0.189400
1.897000 0.191200 0.191200
1.907000 0.192200 0.192200
1.917000 0.194000 0.194000
1.927000 0.195800 0.195800
1.937000 0.197600 0.197600
1.947000 0.202800 0.202800
1.957000 0.208600 0.208600
1.967000 0.213800 0.213800
1.977000 0.219000 0.219000
1.987000 0.224400 0.224400
1.997000 0.230400 0.230400
2.007000 0.237200 0.237200
2.017000 0.244400 0.244400
2.027000 0.252400 0.252400
2.037000 0.261000 0.261000
2.047000 0.270600 0.270600
2.057000 0.279400 0.279400
2.067000 0.280000 0.280000
2.077000 0.281400 0.281400
2.087000 0.283600 0.283600
2.097000 0.286600 0.286600
2.107000 0.289800 0.289800
2.117000 0.294200 0.294200
2.127000 0.298000 0.298000
2.137000 0.301800 0.301800
2.147000 0.305600 0.305600
2.157000 0.309200 0.309200
2.167000 0.312200 0.312200
2.177000 0.315800 0.315800
2.187000 0.318800 0.318800
2.197000 0.322400 0.322400
2.207000 0.325200 0.325200
2.217000 0.368800 0.368800
2.227000 0.376600 0.376600
2.237000 0.383800 0.383800
2.247000 0.390200 0.390200
2.257000 0.396400 0.396400
2.267000 0.401800 0.401800
2.277000 0.407200 0.407200
2.287000 0.411800 0.411800
2.297000 0.415600 0.415600
2.307000 0.419200 0.419200
2.317000 0.422800 0.422800
2.327000 0.425000 0.425000
2.337000 0.427600 0.427600
2.347000 0.429600 0.429600
2.357000 0.430800 0.430800
2.367000 0.431800 0.431800
2.377000 0.432200 0.432200
2.387000 0.438400 0.438400
2.397000 0.451000 0.451000
2.407000 0.462800 0.462800
2.417000 0.474600 0.474600
2.427000 0.487400 0.487400
2.437000 0.504200 0.504200
2.447000 0.521800 0.521800
2.457000 0.540200 0.540200
2.467000 0.565000 0.565000
2.477000 0.597800 0.597800
2.487000 0.627400 0.627400
2.497000 0.645600 0.645600
2.507000 0.660200 0.660200
2.517000 0.669800 0.669800
2.527000 0.678000 0.678000
2.537000 0.681200 0.681200
2.547000 0.679400 0.679400
2.557000 0.797400 0.797400
2.567000 0.806200 0.806200
2.577000 0.815600 0.815600
2.587000 0.825600 0.825600
2.597000 0.835600 0.835600
2.607000 0.846200 0.846200
2.617000 0.859400 0.859400
2.627000 0.870600 0.870600
2.637000 0.882000 0.882000
2.647000 0.900000 0.900000
2.657000 0.954000 0.954000
2.667000 1.008000 1.008000
2.677000 1.056000 1.056000
2.687000 1.102000 1.102000
2.697000 1.146000 1.146000
2.707000 1.184000 1.184000
2.717000 1.224000 1.224000
2.727000 1.412000 1.412000
2.737000 1.514000 1.514000
2.747000 1.608000 1.608000
2.757000 1.700000 1.700000
2.767000 1.800000 1.800000
2.777000 1.628000 1.628000
2.787000 1.502000 1.502000
2.797000 1.374000 1.374000
2.807000 1.230000 1.230000
2.817000 1.078000 1.078000
2.827000 1.058000 1.058000
2.837000 1.034000 1.034000
2.847000 1.004000 1.004000
2.857000 0.952000 0.952000
2.867000 0.896000 0.896000
2.877000 0.858200 0.858200
2.887000 0.864400 0.864400
2.897000 0.872600 0.872600
2.907000 0.881400 0.881400
2.917000 0.715600 0.715600
2.927000 0.730000 0.730000
2.937000 0.745000 0.745000
2.947000 0.758000 0.758000
2.957000 0.776200 0.776200
2.967000 0.792400 0.792400
2.977000 0.809200 0.809200
2.987000 0.829200 0.829200
2.997000 0.847200 0.847200
3.007000 0.868400 0.868400
3.017000 0.891400 0.891400
3.027000 0.912000 0.912000
3.037000 0.946000 0.946000
3.047000 0.980000 0.980000
3.057000 1.010000 1.010000
3.067000 0.990000 0.990000
3.077000 1.008000 1.008000
3.087000 1.026000 1.026000
3.097000 1.044000 1.044000
3.107000 1.070000 1.070000
3.117000 1.090000 1.090000
3.127000 1.108000 1.108000
3.137000 1.136000 1.136000
3.147000 1.168000 1.168000
3.157000 1.244000 1.244000
3.167000 1.358000 1.358000
3.177000 1.382000 1.382000
3.187000 1.406000 1.406000
3.197000 1.440000 1.440000
3.207000 1.472000 1.472000
3.217000 1.506000 1.506000
3.227000 1.546000 1.546000
3.237000 1.580000 1.580000
3.247000 1.614000 1.614000
3.257000 1.802000 1.802000
3.267000 1.816000 1.816000
3.277000 2.698000 2.698000
3.287000 2.280000 2.280000
3.297000 1.860000 1.860000
3.307000 1.442000 1.442000
3.317000 1.040000 1.040000
3.327000 0.904000 0.904000
3.337000 0.904000 0.904000
3.347000 0.904000 0.904000
3.357000 0.904000 0.904000
3.367000 0.896000 0.896000
3.377000 0.896000 0.896000
3.387000 0.888000 0.888000
3.397000 0.886200 0.886200
3.407000 0.880000 0.880000
3.417000 0.878200 0.878200
3.427000 0.898000 0.898000
3.437000 0.910000 0.910000
3.447000 0.926000 0.926000
3.457000 0.944000 0.944000
3.467000 0.972000 0.972000
3.477000 1.008000 1.008000
3.487000 1.114000 1.114000
3.497000 1.278000 1.278000
3.507000 1.522000 1.522000
3.517000 1.830000 1.830000
3.527000 1.584000 1.584000
3.537000 1.452000 1.452000
3.547000 1.412000 1.412000
3.557000 1.372000 1.372000
3.567000 1.330000 1.330000
3.577000 1.286000 1.286000
3.587000 1.238000 1.238000
3.597000 1.160000 1.160000
3.607000 1.048000 1.048000
3.617000 0.930200 0.930200
3.627000 0.813000 0.813000
3.637000 0.483600 0.483600
3.647000 0.437000 0.437000
3.657000 0.388200 0.388200
3.667000 0.334400 0.334400
3.677000 0.277600 0.277600
3.687000 0.238800 0.238800
3.697000 0.202800 0.202800
3.707000 0.168600 0.168600
3.717000 0.136200 0.136200
3.727000 0.105200 0.105200
3.737000 0.075260 0.075260
3.747000 0.047080 0.047080
3.757000 0.037360 0.037360
3.767000 0.034420 0.034420
3.777000 0.031820 0.031820
3.787000 0.029420 0.029420
3.797000 0.027240 0.027240
3.807000 0.025260 0.025260
3.817000 0.023440 0.023440
3.827000 0.021820 0.021820
3.837000 0.020400 0.020400
3.847000 0.019740 0.019740
3.857000 0.019340 0.019340
3.867000 0.019000 0.019000
3.877000 0.018620 0.018620
3.887000 0.018320 0.018320
3.897000 0.018080 0.018080
3.907000 0.017780 0.017780
3.917000 0.017560 0.017560
3.927000 0.017300 0.017300
3.937000 0.017160 0.017160
3.947000 0.016960 0.016960
3.957000 0.016780 0.016780
3.967000 0.016680 0.016680
3.977000 0.016580 0.016580
3.987000 0.016540 0.016540
3.997000 0.016460 0.016460
4.007000 0.016440 0.016440
4.017000 0.030420 0.030420
4.027000 0.028740 0.028740
4.037000 0.026980 0.026980
4.047000 0.025200 0.025200
4.057000 0.023280 0.023280
4.067000 0.021280 0.021280
4.077000 0.019260 0.019260
4.087000 0.017120 0.017120
4.097000 0.014960 0.014960
4.107000 0.012640 0.012640
4.117000 0.010340 0.010340
4.127000 0.007916 0.007916
4.137000 0.005424 0.005424
4.147000 0.002858 0.002858
4.157000 0.000180 0.000180
4.167000 0.000000 0.000000
