# E (eV)   ldos(E)   pdos(E)    pdos(E)    pdos(E)   
-17.719000 0.000000 0.000000 0.000000 0.000000
-17.709000 0.133000 0.080113 0.026416 0.026421
-17.699000 0.281600 0.159617 0.060860 0.060980
-17.689000 0.164300 0.088421 0.037980 0.038010
-17.679000 0.185600 0.094808 0.045420 0.045400
-17.669000 0.207800 0.101195 0.053420 0.053360
-17.659000 0.231300 0.107279 0.061960 0.061960
-17.649000 0.227400 0.100889 0.063220 0.063160
-17.639000 0.217600 0.092772 0.062250 0.062390
-17.629000 0.226600 0.093275 0.066640 0.066680
-17.619000 0.239800 0.095199 0.072460 0.072380
-17.609000 0.254100 0.097426 0.078300 0.078420
-17.599000 0.268100 0.099350 0.084560 0.084450
-17.589000 0.283000 0.101574 0.090740 0.090690
-17.579000 0.298100 0.103498 0.097220 0.097120
-17.569000 0.284500 0.095893 0.094200 0.094200
-17.559000 0.290300 0.095181 0.097680 0.097480
-17.549000 0.296100 0.094669 0.100720 0.100720
-17.539000 0.301900 0.094154 0.103740 0.103640
-17.529000 0.310600 0.094657 0.108240 0.108140
-17.519000 0.321700 0.095366 0.112940 0.113140
-17.509000 0.332600 0.096575 0.117940 0.118140
-17.499000 0.344000 0.097284 0.123360 0.123260
-17.489000 0.354900 0.098490 0.128380 0.128180
-17.479000 0.366300 0.099499 0.133500 0.133400
-17.469000 0.367000 0.097469 0.134900 0.134900
-17.459000 0.363400 0.094527 0.134400 0.134500
-17.449000 0.367600 0.093812 0.137000 0.136600
-17.439000 0.374700 0.094009 0.140400 0.140300
-17.429000 0.381900 0.094003 0.144100 0.144000
-17.419000 0.389000 0.094000 0.147600 0.147500
-17.409000 0.396400 0.094194 0.150900 0.151000
-17.399000 0.403300 0.094191 0.154400 0.154400
-17.389000 0.412000 0.094691 0.158600 0.158700
-17.379000 0.421000 0.095391 0.162900 0.162800
-17.369000 0.430100 0.095891 0.167100 0.167200
-17.359000 0.439400 0.096591 0.171500 0.171500
-17.349000 0.448700 0.097091 0.176000 0.176000
-17.339000 0.458200 0.097291 0.180500 0.180400
-17.329000 0.451700 0.094852 0.178300 0.178500
-17.319000 0.455600 0.094340 0.180600 0.180600
-17.309000 0.459300 0.093825 0.182700 0.182900
-17.299000 0.462900 0.093313 0.185000 0.185000
-17.289000 0.470300 0.093510 0.188600 0.188500
-17.279000 0.477200 0.093504 0.191900 0.191800
-17.269000 0.484700 0.094001 0.195200 0.195300
-17.259000 0.491800 0.094195 0.198700 0.198800
-17.249000 0.499000 0.094189 0.202300 0.202400
-17.239000 0.506200 0.094683 0.206000 0.205900
-17.229000 0.513300 0.094880 0.209400 0.209400
-17.219000 0.521300 0.095074 0.213300 0.213200
-17.209000 0.529600 0.095571 0.217200 0.217100
-17.199000 0.537600 0.095765 0.221100 0.221000
-17.189000 0.546100 0.096262 0.225100 0.224900
-17.179000 0.550100 0.095750 0.227200 0.227000
-17.169000 0.549700 0.094729 0.227400 0.227600
-17.159000 0.554500 0.094517 0.230000 0.230000
-17.149000 0.560600 0.094708 0.233100 0.233000
-17.139000 0.566400 0.094699 0.236000 0.236000
-17.129000 0.572300 0.094690 0.238900 0.238800
-17.119000 0.578400 0.094881 0.241700 0.241800
-17.109000 0.585300 0.094872 0.245400 0.245200
-17.099000 0.593400 0.095566 0.249100 0.249000
-17.089000 0.601700 0.095760 0.252900 0.252900
-17.079000 0.610000 0.096254 0.256800 0.256800
-17.069000 0.618100 0.096448 0.260900 0.260800
-17.059000 0.626400 0.096939 0.264600 0.264500
-17.049000 0.634500 0.097130 0.268500 0.268700
-17.039000 0.643100 0.097624 0.272800 0.272600
-17.029000 0.651400 0.098015 0.276500 0.276500
-17.019000 0.660900 0.098509 0.281300 0.281300
-17.009000 0.670600 0.099200 0.285800 0.285800
-16.999000 0.675200 0.098885 0.288100 0.288200
-16.989000 0.682700 0.099173 0.291700 0.291900
-16.979000 0.690300 0.099364 0.295300 0.295200
-16.969000 0.698400 0.099552 0.299400 0.299200
-16.959000 0.709500 0.100743 0.304500 0.304500
-16.949000 0.720900 0.101437 0.309700 0.309600
-16.939000 0.732100 0.102128 0.315000 0.314900
-16.929000 0.743500 0.102819 0.320400 0.320300
-16.919000 0.756100 0.103507 0.325500 0.325700
-16.909000 0.769000 0.104901 0.332700 0.332800
-16.899000 0.789800 0.106595 0.341000 0.340800
-16.889000 0.804800 0.107986 0.349000 0.348900
-16.879000 0.825600 0.109880 0.357300 0.357400
-16.869000 0.843400 0.111268 0.365800 0.365600
-16.859000 0.861400 0.112659 0.374200 0.374200
-16.849000 0.879200 0.114547 0.382700 0.382800
-16.839000 0.900000 0.115932 0.391400 0.391300
-16.829000 0.932600 0.119529 0.407100 0.407100
-16.819000 0.968400 0.123320 0.422900 0.423000
-16.809000 1.007000 0.126611 0.439100 0.439000
-16.799000 1.039400 0.130199 0.454800 0.454800
-16.789000 1.089000 0.135396 0.476600 0.476600
-16.779000 1.139000 0.140587 0.499600 0.499700
-16.769000 1.249000 0.153011 0.547900 0.547900
-16.759000 1.371000 0.166623 0.602100 0.602000
-16.749000 2.338000 0.281666 1.027100 1.029200
-16.739000 1.134000 0.136603 0.499400 0.499400
-16.729000 1.064600 0.126955 0.468400 0.468400
-16.719000 0.994400 0.117810 0.437000 0.437100
-16.709000 0.918200 0.108668 0.405600 0.405500
-16.699000 0.845000 0.099329 0.373500 0.373500
-16.689000 0.771800 0.090190 0.341200 0.341300
-16.679000 0.698100 0.081057 0.308500 0.308600
-16.669000 0.711700 0.081948 0.314800 0.314700
-16.659000 0.730200 0.083645 0.323400 0.323300
-16.649000 0.750000 0.085045 0.332000 0.331900
-16.639000 0.768200 0.086951 0.340400 0.340400
-16.629000 0.787000 0.088360 0.348800 0.348900
-16.619000 0.524000 0.058574 0.232700 0.232800
-16.609000 0.542600 0.060358 0.241200 0.241000
-16.599000 0.544500 0.060266 0.242100 0.242000
-16.589000 0.522500 0.057532 0.232500 0.232600
-16.579000 0.500600 0.054768 0.223000 0.222900
-16.569000 0.478600 0.052034 0.213400 0.213500
-16.559000 0.456700 0.049301 0.203700 0.203600
-16.549000 0.434200 0.046598 0.193600 0.193500
-16.539000 0.411500 0.044096 0.183800 0.183800
-16.529000 0.389000 0.041393 0.173800 0.173800
-16.519000 0.366200 0.038691 0.163700 0.163700
-16.509000 0.343200 0.036120 0.153600 0.153400
-16.499000 0.320200 0.033509 0.143300 0.143400
-16.489000 0.297200 0.030918 0.133100 0.133100
-16.479000 0.277200 0.028708 0.124380 0.124180
-16.469000 0.279900 0.028796 0.125580 0.125580
-16.459000 0.282400 0.028884 0.126680 0.126780
-16.449000 0.284800 0.028974 0.127720 0.127920
-16.439000 0.287000 0.029064 0.129000 0.129200
-16.429000 0.289100 0.029135 0.130000 0.130300
-16.419000 0.291800 0.029226 0.131200 0.131500
-16.409000 0.294100 0.029299 0.132400 0.132300
-16.399000 0.000000 0.000000 0.000000 0.000000
-16.389000 0.000000 0.000000 0.000000 0.000000
-16.379000 0.000000 0.000000 0.000000 0.000000
-16.369000 0.000000 0.000000 0.000000 0.000000
-16.359000 0.000000 0.000000 0.000000 0.000000
-16.349000 0.000000 0.000000 0.000000 0.000000
-16.339000 0.000000 0.000000 0.000000 0.000000
-16.329000 0.000000 0.000000 0.000000 0.000000
-16.319000 0.000000 0.000000 0.000000 0.000000
-16.309000 0.000000 0.000000 0.000000 0.000000
-16.299000 0.000000 0.000000 0.000000 0.000000
-16.289000 0.000000 0.000000 0.000000 0.000000
-16.279000 0.000000 0.000000 0.000000 0.000000
-16.269000 0.000000 0.000000 0.000000 0.000000
-16.259000 0.000000 0.000000 0.000000 0.000000
-16.249000 0.000000 0.000000 0.000000 0.000000
-16.239000 0.000000 0.000000 0.000000 0.000000
-16.229000 0.000000 0.000000 0.000000 0.000000
-16.219000 0.000000 0.000000 0.000000 0.000000
-16.209000 0.000000 0.000000 0.000000 0.000000
-16.199000 0.000000 0.000000 0.000000 0.000000
-16.189000 0.000000 0.000000 0.000000 0.000000
-16.179000 0.000000 0.000000 0.000000 0.000000
-16.169000 0.000000 0.000000 0.000000 0.000000
-16.159000 0.000000 0.000000 0.000000 0.000000
-16.149000 0.345700 0.030239 0.157600 0.157600
-16.139000 0.337000 0.029397 0.153800 0.153800
-16.129000 0.328800 0.028533 0.150100 0.149900
-16.119000 0.320200 0.027687 0.146200 0.146300
-16.109000 0.311600 0.026858 0.142500 0.142800
-16.099000 0.303600 0.026028 0.138800 0.138900
-16.089000 0.295400 0.025195 0.135100 0.135200
-16.079000 0.291000 0.024713 0.133200 0.133300
-16.069000 0.323700 0.027383 0.148300 0.148200
-16.059000 0.356800 0.030014 0.163400 0.163300
-16.049000 0.389700 0.032637 0.178300 0.178600
-16.039000 0.422500 0.035222 0.193600 0.193700
-16.029000 0.455500 0.037767 0.208700 0.208900
-16.019000 0.488800 0.040395 0.224300 0.224200
-16.009000 0.522000 0.043023 0.239400 0.239400
-15.999000 0.555100 0.045426 0.254700 0.254800
-15.989000 0.588500 0.048026 0.270100 0.270300
-15.979000 0.621600 0.050432 0.285800 0.285700
-15.969000 0.655200 0.053005 0.301200 0.301000
-15.959000 0.688700 0.055384 0.316600 0.316700
-15.949000 2.079000 0.167205 0.957000 0.955400
-15.939000 1.017000 0.081689 0.468500 0.468600
-15.929000 0.809900 0.064507 0.372400 0.372500
-15.919000 0.937000 0.074508 0.430800 0.430900
-15.909000 1.063000 0.084018 0.489300 0.489300
-15.899000 1.495000 0.117949 0.687300 0.687600
-15.889000 2.066000 0.162620 0.951300 0.950400
-15.879000 2.642000 0.207410 1.216500 1.219000
-15.869000 1.377000 0.107400 0.636300 0.635600
-15.859000 1.325000 0.102686 0.610600 0.610600
-15.849000 1.267000 0.097775 0.585300 0.585500
-15.839000 1.212000 0.093070 0.559700 0.560200
-15.829000 1.157000 0.088465 0.534100 0.534400
-15.819000 1.099000 0.083566 0.508400 0.508400
-15.809000 1.046000 0.078873 0.482400 0.482700
-15.799000 1.004000 0.075704 0.465200 0.465300
-15.789000 0.975000 0.073047 0.451000 0.451100
-15.779000 0.944000 0.070290 0.436900 0.437000
-15.769000 0.920000 0.068348 0.427100 0.426900
-15.759000 0.904000 0.066918 0.418700 0.418700
-15.749000 0.883000 0.065185 0.410100 0.410200
-15.739000 0.867000 0.063518 0.401800 0.401900
-15.729000 0.849000 0.061678 0.392800 0.392800
-15.719000 0.826700 0.059978 0.382900 0.383000
-15.709000 0.803500 0.058051 0.372900 0.372900
-15.699000 0.781500 0.056187 0.363500 0.363400
-15.689000 0.772700 0.055343 0.359500 0.359500
-15.679000 0.763800 0.054472 0.355300 0.355300
-15.669000 0.756100 0.053601 0.351000 0.351100
-15.659000 0.746700 0.052733 0.347100 0.347100
-15.649000 0.737500 0.051892 0.342700 0.342900
-15.639000 0.732000 0.051147 0.340400 0.340600
-15.629000 0.726300 0.050635 0.337800 0.337900
-15.619000 0.720800 0.049920 0.335400 0.335400
-15.609000 0.715000 0.049375 0.332800 0.333000
-15.599000 0.709000 0.048663 0.330300 0.330400
-15.589000 0.703500 0.048151 0.327500 0.327700
-15.579000 0.697700 0.047639 0.325200 0.324900
-15.569000 0.691700 0.046924 0.322400 0.322500
-15.559000 0.685900 0.046412 0.319800 0.319700
-15.549000 0.679800 0.045703 0.317300 0.317100
-15.539000 0.674000 0.045191 0.314500 0.314500
-15.529000 0.668200 0.044479 0.311800 0.311700
-15.519000 0.661600 0.043970 0.308800 0.308900
-15.509000 0.654700 0.043258 0.305800 0.305800
-15.499000 0.647800 0.042716 0.302700 0.302400
-15.489000 0.640900 0.042007 0.299400 0.299600
-15.479000 0.633700 0.041298 0.296200 0.296300
-15.469000 0.627300 0.040789 0.293300 0.293300
-15.459000 0.620400 0.040080 0.290100 0.290200
-15.449000 0.613700 0.039571 0.287200 0.287300
-15.439000 0.589000 0.037776 0.275600 0.275700
-15.429000 0.586600 0.037420 0.274400 0.274600
-15.419000 0.584000 0.037231 0.273600 0.273500
-15.409000 0.581700 0.036855 0.272400 0.272300
-15.399000 0.579100 0.036559 0.271300 0.271300
-15.389000 0.576700 0.036210 0.270000 0.270100
-15.379000 0.573800 0.035914 0.269100 0.269000
-15.369000 0.571200 0.035618 0.267700 0.267700
-15.359000 0.568600 0.035272 0.266900 0.266800
-15.349000 0.566200 0.034976 0.265600 0.265600
-15.339000 0.563600 0.034680 0.264300 0.264400
-15.329000 0.560400 0.034384 0.263200 0.263300
-15.319000 0.557800 0.034068 0.262000 0.262100
-15.309000 0.555200 0.033772 0.260700 0.260500
-15.299000 0.552000 0.033426 0.259200 0.259300
-15.289000 0.548800 0.033110 0.257700 0.257700
-15.279000 0.545600 0.032765 0.256500 0.256400
-15.269000 0.542200 0.032449 0.254900 0.254800
-15.259000 0.539000 0.032134 0.253400 0.253600
-15.249000 0.535800 0.031788 0.252200 0.252100
-15.239000 0.532600 0.031473 0.250600 0.250700
-15.229000 0.529200 0.031158 0.249200 0.249000
-15.219000 0.526000 0.030843 0.247600 0.247600
-15.209000 0.522800 0.030499 0.246100 0.246100
-15.199000 0.519300 0.030204 0.244700 0.244600
-15.189000 0.516100 0.029890 0.243100 0.243100
-15.179000 0.511600 0.029505 0.241000 0.241000
-15.169000 0.504100 0.028979 0.237400 0.237600
-15.159000 0.496900 0.028433 0.234300 0.234200
-15.149000 0.489600 0.027878 0.230700 0.230700
-15.139000 0.482100 0.027353 0.227400 0.227300
-15.129000 0.474600 0.026827 0.223700 0.223600
-15.119000 0.472200 0.026634 0.222900 0.222800
-15.109000 0.470600 0.026410 0.222100 0.222000
-15.099000 0.468800 0.026216 0.221300 0.221400
-15.089000 0.467200 0.026043 0.220400 0.220600
-15.079000 0.465400 0.025819 0.219700 0.219800
-15.069000 0.463500 0.025626 0.218900 0.218900
-15.059000 0.461400 0.025432 0.218100 0.218100
-15.049000 0.459800 0.025229 0.217300 0.217300
-15.039000 0.458200 0.025035 0.216500 0.216500
-15.029000 0.456400 0.024842 0.215800 0.215700
-15.019000 0.454500 0.024639 0.214800 0.214800
-15.009000 0.452400 0.024446 0.214000 0.213900
-14.999000 0.450800 0.024253 0.213200 0.213100
-14.989000 0.449000 0.024080 0.212400 0.212200
-14.979000 0.446800 0.023887 0.211400 0.211400
-14.969000 0.445000 0.023694 0.210700 0.210600
-14.959000 0.443400 0.023491 0.209900 0.209700
-14.949000 0.441000 0.023298 0.208900 0.208900
-14.939000 0.439400 0.023105 0.207900 0.208000
-14.929000 0.437000 0.022912 0.207100 0.207100
-14.919000 0.433500 0.022649 0.205600 0.205500
-14.909000 0.430300 0.022406 0.204200 0.204000
-14.899000 0.427100 0.022143 0.202400 0.202300
-14.889000 0.423600 0.021900 0.201000 0.200700
-14.879000 0.420400 0.021637 0.199300 0.199200
-14.869000 0.417200 0.021395 0.197900 0.198000
-14.859000 0.413700 0.021132 0.196200 0.196200
-14.849000 0.410500 0.020889 0.194700 0.194900
-14.839000 0.407000 0.020627 0.193200 0.193100
-14.829000 0.403800 0.020384 0.191600 0.191600
-14.819000 0.400100 0.020152 0.190300 0.190000
-14.809000 0.383400 0.019236 0.182000 0.181900
-14.799000 0.382100 0.019114 0.181400 0.181400
-14.789000 0.380700 0.018962 0.181100 0.181000
-14.779000 0.379700 0.018840 0.180400 0.180200
-14.769000 0.378100 0.018718 0.179600 0.179700
-14.759000 0.377000 0.018596 0.179300 0.179400
-14.749000 0.375700 0.018474 0.178800 0.178600
-14.739000 0.374400 0.018333 0.178000 0.178000
-14.729000 0.373100 0.018211 0.177500 0.177700
-14.719000 0.372000 0.018059 0.177000 0.176900
-14.709000 0.370400 0.017937 0.176300 0.176300
-14.699000 0.368800 0.017815 0.175500 0.175500
-14.689000 0.367200 0.017673 0.174700 0.174700
-14.679000 0.365600 0.017501 0.173700 0.173800
-14.669000 0.363500 0.017379 0.173300 0.173200
-14.659000 0.361900 0.017238 0.172500 0.172400
-14.649000 0.360000 0.017066 0.171520 0.171600
-14.639000 0.357900 0.016944 0.170750 0.170700
-14.629000 0.356300 0.016802 0.169780 0.169900
-14.619000 0.354700 0.016631 0.168800 0.168900
-14.609000 0.352600 0.016509 0.168030 0.168100
-14.599000 0.350700 0.016368 0.167260 0.167200
-14.589000 0.348800 0.016196 0.166290 0.166600
-14.579000 0.347200 0.016074 0.165610 0.165600
-14.569000 0.345100 0.015933 0.164840 0.164700
-14.559000 0.343200 0.015792 0.163670 0.163900
-14.549000 0.341300 0.015670 0.162900 0.162900
-14.539000 0.339500 0.015499 0.161930 0.161900
-14.529000 0.337600 0.015378 0.161150 0.161000
-14.519000 0.334400 0.015166 0.159540 0.159600
-14.509000 0.329500 0.014904 0.157190 0.157300
-14.499000 0.324700 0.014622 0.154840 0.154800
-14.489000 0.319600 0.014390 0.152700 0.152800
-14.479000 0.315100 0.014109 0.150350 0.150200
-14.469000 0.310200 0.013847 0.148100 0.148100
-14.459000 0.305100 0.013566 0.145950 0.145800
-14.449000 0.300800 0.013354 0.143610 0.143600
-14.439000 0.299200 0.013233 0.143060 0.143200
-14.429000 0.298400 0.013162 0.142380 0.142500
-14.419000 0.296800 0.013060 0.142070 0.142100
-14.409000 0.295800 0.012970 0.141550 0.141500
-14.399000 0.294400 0.012868 0.140840 0.140700
-14.389000 0.293400 0.012797 0.140320 0.140100
-14.379000 0.292000 0.012677 0.139610 0.139600
-14.369000 0.290700 0.012605 0.139090 0.139200
-14.359000 0.289400 0.012504 0.138380 0.138400
-14.349000 0.288300 0.012413 0.137870 0.137800
-14.339000 0.286700 0.012313 0.137350 0.137400
-14.329000 0.285900 0.012242 0.136640 0.136700
-14.319000 0.284300 0.012121 0.135930 0.136100
-14.309000 0.283200 0.012050 0.135810 0.135700
-14.299000 0.281900 0.011949 0.135100 0.134900
-14.289000 0.280600 0.011858 0.134390 0.134300
-14.279000 0.279200 0.011757 0.133880 0.133900
-14.269000 0.278200 0.011686 0.133360 0.133300
-14.259000 0.276000 0.011545 0.132200 0.132400
-14.249000 0.273900 0.011425 0.131240 0.131400
-14.239000 0.271500 0.011334 0.130290 0.130300
-14.229000 0.269600 0.011193 0.129330 0.129300
-14.219000 0.267200 0.011072 0.128170 0.128100
-14.209000 0.265300 0.010951 0.127010 0.127200
-14.199000 0.263200 0.010810 0.126240 0.126200
-14.189000 0.261300 0.010689 0.125090 0.125200
-14.179000 0.258900 0.010599 0.124130 0.124100
-14.169000 0.256800 0.010458 0.122970 0.123100
-14.159000 0.254600 0.010337 0.122210 0.122000
-14.149000 0.676000 0.026556 0.325200 0.325100
-14.139000 0.712700 0.027842 0.342900 0.342700
-14.129000 0.749700 0.029128 0.360300 0.360400
-14.119000 0.786400 0.030378 0.378000 0.378100
-14.109000 0.823700 0.031658 0.395800 0.395600
-14.099000 0.845600 0.032355 0.407700 0.407600
-14.089000 0.883800 0.033666 0.425100 0.425100
-14.079000 0.885000 0.033598 0.425700 0.425700
-14.069000 0.868700 0.032816 0.416700 0.416700
-14.059000 0.849800 0.032044 0.409900 0.409800
-14.049000 0.833200 0.031295 0.400700 0.400800
-14.039000 0.788600 0.029529 0.379300 0.379200
-14.029000 0.799400 0.029803 0.384200 0.384300
-14.019000 0.808200 0.030074 0.389600 0.389500
-14.009000 0.819000 0.030312 0.394400 0.394500
-13.999000 0.829800 0.030603 0.399600 0.399400
-13.989000 0.840600 0.030871 0.405900 0.405700
-13.979000 0.851400 0.031139 0.410100 0.410100
-13.969000 0.862500 0.031397 0.414300 0.414500
-13.959000 0.873600 0.031662 0.420700 0.420800
-13.949000 0.882400 0.031947 0.425100 0.425200
-13.939000 0.893500 0.032182 0.431500 0.431600
-13.929000 0.904900 0.032467 0.436200 0.436000
-13.919000 0.916000 0.032699 0.442500 0.442700
-13.909000 0.928000 0.033050 0.447400 0.447500
-13.899000 0.893300 0.031700 0.430800 0.430600
-13.889000 0.893900 0.031596 0.430800 0.430900
-13.879000 0.893900 0.031472 0.431100 0.431000
-13.869000 0.894500 0.031368 0.431300 0.431400
-13.859000 0.895100 0.031297 0.431500 0.431500
-13.849000 0.895100 0.031173 0.431800 0.431800
-13.839000 0.898300 0.031105 0.434400 0.434400
-13.829000 0.902700 0.031196 0.435500 0.435400
-13.819000 0.909100 0.031257 0.438600 0.438600
-13.809000 0.912600 0.031251 0.441300 0.441300
-13.799000 0.915500 0.031222 0.442000 0.441900
-13.789000 0.918700 0.031210 0.444500 0.444200
-13.779000 0.921600 0.031231 0.444800 0.444900
-13.769000 0.926800 0.031202 0.447300 0.447200
-13.759000 0.930000 0.031190 0.449900 0.449900
-13.749000 0.933200 0.031181 0.450600 0.450500
-13.739000 0.936400 0.031169 0.453000 0.453000
-13.729000 0.939600 0.031187 0.453400 0.453500
-13.719000 0.942800 0.031155 0.456200 0.455900
-13.709000 0.962600 0.031658 0.465900 0.465800
-13.699000 0.969300 0.031745 0.469100 0.469100
-13.689000 0.976300 0.031829 0.472600 0.472600
-13.679000 0.984500 0.031983 0.476400 0.476500
-13.669000 0.994400 0.032157 0.480500 0.480600
-13.659000 0.999100 0.032215 0.483900 0.483800
-13.649000 1.003200 0.032234 0.484900 0.484700
-13.639000 1.009900 0.032269 0.488200 0.488100
-13.629000 1.014600 0.032354 0.491300 0.491400
-13.619000 1.021900 0.032439 0.494800 0.494800
-13.609000 1.028600 0.032504 0.498400 0.498200
-13.599000 1.035600 0.032589 0.501800 0.501800
-13.589000 1.042600 0.032674 0.505100 0.505200
-13.579000 1.049300 0.032766 0.508600 0.508600
-13.569000 1.056300 0.032848 0.512000 0.511900
-13.559000 1.061000 0.032910 0.515200 0.515300
-13.549000 1.067700 0.032959 0.518400 0.518500
-13.539000 1.074400 0.033018 0.521700 0.521700
-13.529000 1.081700 0.033140 0.525300 0.525400
-13.519000 1.095400 0.033384 0.529900 0.530100
-13.509000 1.109100 0.033635 0.536600 0.536800
-13.499000 1.120800 0.033876 0.543500 0.543500
-13.489000 1.133600 0.034127 0.550200 0.550200
-13.479000 1.144700 0.034398 0.556800 0.557000
-13.469000 1.160800 0.034616 0.563500 0.563800
-13.459000 1.173900 0.034864 0.568300 0.568300
-13.449000 1.182400 0.034983 0.574500 0.574400
-13.439000 1.192600 0.035122 0.578300 0.578200
-13.429000 1.202800 0.035238 0.582100 0.581900
-13.419000 1.211000 0.035354 0.588000 0.588000
-13.409000 1.218200 0.035470 0.591800 0.591900
-13.399000 1.228400 0.035526 0.595800 0.595700
-13.389000 1.356000 0.039053 0.658700 0.658600
-13.379000 1.428000 0.040927 0.693700 0.693700
-13.369000 1.504000 0.043075 0.730800 0.730700
-13.359000 1.568000 0.044697 0.762400 0.762500
-13.349000 1.617000 0.045866 0.786300 0.786400
-13.339000 1.661000 0.046697 0.806800 0.806500
-13.329000 1.700000 0.047848 0.826900 0.827000
-13.319000 1.745000 0.048653 0.847100 0.847200
-13.309000 1.789000 0.049778 0.869400 0.869500
-13.299000 1.871000 0.051857 0.909200 0.909200
-13.289000 1.917000 0.052959 0.932700 0.932900
-13.279000 1.959000 0.053729 0.952400 0.952500
-13.269000 1.998000 0.054496 0.972200 0.972200
-13.259000 2.040000 0.055260 0.991900 0.991900
-13.249000 2.045000 0.055394 0.994700 0.994800
-13.239000 1.772000 0.047479 0.862200 0.862200
-13.229000 1.646000 0.043918 0.801200 0.801100
-13.219000 1.576000 0.041902 0.767000 0.766800
-13.209000 1.506000 0.039912 0.732600 0.732400
-13.199000 1.433000 0.037622 0.698000 0.698100
-13.189000 1.384000 0.036250 0.673800 0.673800
-13.179000 1.345200 0.034885 0.655700 0.655700
-13.169000 1.306700 0.033825 0.635500 0.635700
-13.159000 1.266600 0.032553 0.617400 0.617300
-13.149000 1.227800 0.031346 0.597000 0.597100
-13.139000 1.188700 0.030139 0.578300 0.578400
-13.129000 1.146900 0.028993 0.560300 0.559900
-13.119000 1.132600 0.028382 0.552700 0.552900
-13.109000 1.124400 0.028020 0.547600 0.547600
-13.099000 1.116900 0.027623 0.544200 0.544100
-13.089000 1.108400 0.027254 0.540800 0.540700
-13.079000 1.102900 0.026883 0.537300 0.537200
-13.069000 1.091800 0.026479 0.533600 0.533600
-13.059000 1.085700 0.026044 0.529400 0.529600
-13.049000 1.074000 0.025636 0.523600 0.523500
-13.039000 1.049700 0.024857 0.511800 0.511800
-13.029000 1.016100 0.023896 0.496300 0.496100
-13.019000 0.981900 0.022904 0.480500 0.480500
-13.009000 0.949400 0.021972 0.462800 0.462700
-12.999000 0.915200 0.021022 0.447000 0.447100
-12.989000 0.884800 0.020168 0.432400 0.432300
-12.979000 0.852400 0.019344 0.417500 0.417500
-12.969000 0.821700 0.018491 0.400800 0.400800
-12.959000 0.789000 0.017671 0.385700 0.385700
-12.949000 1.053300 0.023456 0.515500 0.515300
-12.939000 1.015100 0.022427 0.497100 0.497300
-12.929000 0.977400 0.021461 0.477000 0.476900
-12.919000 0.937400 0.020465 0.458500 0.458400
-12.909000 0.899400 0.019471 0.440000 0.440000
-12.899000 0.860800 0.018508 0.421100 0.421200
-12.889000 0.819900 0.017547 0.402200 0.402200
-12.879000 0.781000 0.016587 0.382100 0.382300
-12.869000 0.741800 0.015628 0.363000 0.362700
-12.859000 0.702000 0.014671 0.343300 0.343300
-12.849000 1.022500 0.021273 0.500900 0.500600
-12.839000 0.968700 0.019988 0.474400 0.474500
-12.829000 0.898500 0.018404 0.440000 0.440100
-12.819000 0.829400 0.016851 0.405800 0.405900
-12.809000 0.758000 0.015300 0.371500 0.371300
-12.799000 0.685700 0.013751 0.336600 0.336400
-12.789000 0.615100 0.012233 0.301200 0.301300
-12.779000 0.871300 0.017180 0.427200 0.427200
-12.769000 0.338800 0.006633 0.166200 0.166200
-12.759000 0.001165 0.000023 0.000571 0.000570
-12.749000 0.004366 0.000086 0.002145 0.002145
-12.739000 0.007584 0.000151 0.003717 0.003718
-12.729000 0.010789 0.000216 0.005285 0.005284
-12.719000 0.014010 0.000283 0.006865 0.006863
-12.709000 0.017250 0.000349 0.008438 0.008438
-12.699000 0.020450 0.000419 0.010004 0.010009
-12.689000 0.023660 0.000490 0.011565 0.011564
-12.679000 0.026860 0.000559 0.013148 0.013152
-12.669000 0.030100 0.000633 0.014727 0.014740
-12.659000 0.033300 0.000703 0.016290 0.016290
-12.649000 0.036510 0.000780 0.017850 0.017850
-12.639000 0.039730 0.000853 0.019430 0.019440
-12.629000 0.042940 0.000931 0.021020 0.021010
-12.619000 0.046160 0.001007 0.022570 0.022580
-12.609000 0.049390 0.001084 0.024140 0.024150
-12.599000 0.052510 0.001165 0.025730 0.025730
-12.589000 0.055900 0.001243 0.027280 0.027290
-12.579000 0.059090 0.001327 0.028850 0.028840
-12.569000 0.062340 0.001408 0.030440 0.030440
-12.559000 0.065420 0.001493 0.032000 0.031990
-12.549000 0.068730 0.001577 0.033580 0.033560
-12.539000 0.071840 0.001660 0.035140 0.035130
-12.529000 0.075210 0.001747 0.036690 0.036690
-12.519000 0.078410 0.001836 0.038250 0.038250
-12.509000 0.081610 0.001925 0.039830 0.039830
-12.499000 0.084720 0.002014 0.041410 0.041400
-12.489000 0.088190 0.002103 0.042990 0.042970
-12.479000 0.091130 0.002198 0.044540 0.044540
-12.469000 0.094630 0.002290 0.046110 0.046100
-12.459000 0.097600 0.002383 0.047680 0.047660
-12.449000 0.100900 0.002478 0.049250 0.049230
-12.439000 0.104200 0.002573 0.050810 0.050790
-12.429000 0.107200 0.002671 0.052390 0.052370
-12.419000 0.127200 0.003178 0.062170 0.062040
-12.409000 0.130100 0.003245 0.063410 0.063420
-12.399000 0.132700 0.003313 0.064590 0.064600
-12.389000 0.135300 0.003376 0.065860 0.065900
-12.379000 0.138200 0.003445 0.067330 0.067200
-12.369000 0.140600 0.003513 0.068600 0.068560
-12.359000 0.142900 0.003574 0.069850 0.069840
-12.349000 0.145500 0.003636 0.070920 0.071040
-12.339000 0.148400 0.003720 0.072200 0.072320
-12.329000 0.151000 0.003782 0.073660 0.073580
-12.319000 0.153600 0.003844 0.074930 0.074860
-12.309000 0.156200 0.003905 0.076190 0.076240
-12.299000 0.158900 0.003967 0.077460 0.077500
-12.289000 0.161500 0.004049 0.078730 0.078680
-12.279000 0.164100 0.004110 0.079990 0.080060
-12.269000 0.166700 0.004172 0.081260 0.081340
-12.259000 0.169600 0.004254 0.082520 0.082700
-12.249000 0.172000 0.004313 0.083790 0.083660
-12.239000 0.174600 0.004375 0.085050 0.085040
-12.229000 0.177200 0.004437 0.086310 0.086420
-12.219000 0.179900 0.004516 0.087770 0.087660
-12.209000 0.182500 0.004575 0.088820 0.088840
-12.199000 0.185100 0.004637 0.090070 0.090200
-12.189000 0.292900 0.007282 0.143000 0.143100
-12.179000 0.448600 0.011040 0.218800 0.218800
-12.169000 0.564400 0.013850 0.275100 0.275200
-12.159000 0.620200 0.015194 0.302500 0.302700
-12.149000 0.676100 0.016535 0.329800 0.330000
-12.139000 0.732000 0.017893 0.357000 0.357100
-12.129000 0.789500 0.019228 0.384300 0.384300
-12.119000 0.851000 0.020770 0.416000 0.416200
-12.109000 0.918000 0.022332 0.447600 0.447600
-12.099000 0.971000 0.023566 0.473000 0.472900
-12.089000 1.018000 0.024665 0.496000 0.495900
-12.079000 1.066000 0.025791 0.519100 0.519000
-12.069000 1.113000 0.026904 0.542100 0.542200
-12.059000 1.161000 0.028027 0.565600 0.565400
-12.049000 1.205000 0.029150 0.588800 0.588600
-12.039000 1.253000 0.030270 0.611600 0.611600
-12.029000 1.300000 0.031370 0.634700 0.634600
-12.019000 1.347000 0.032490 0.657700 0.657600
-12.009000 1.397000 0.033610 0.680900 0.681600
-11.999000 1.442000 0.034680 0.703700 0.704200
-11.989000 1.363000 0.032830 0.664400 0.664400
-11.979000 1.365000 0.032930 0.666200 0.666600
-11.969000 1.370000 0.033036 0.667700 0.667400
-11.959000 1.371000 0.033124 0.669400 0.669400
-11.949000 1.395000 0.033656 0.679800 0.679800
-11.939000 1.415000 0.034211 0.691200 0.691200
-11.929000 1.441000 0.034786 0.702500 0.703000
-11.919000 1.464000 0.035368 0.714900 0.714000
-11.909000 1.487000 0.035940 0.725500 0.725200
-11.899000 1.521000 0.036770 0.742100 0.741600
-11.889000 1.668000 0.040520 0.813100 0.814000
-11.879000 1.823000 0.044230 0.887500 0.889200
-11.869000 1.924000 0.046940 0.937400 0.938000
-11.859000 1.931000 0.046940 0.941900 0.941800
-11.849000 1.938000 0.047170 0.946400 0.946200
-11.839000 1.944000 0.047340 0.948600 0.949000
-11.829000 1.915000 0.046550 0.933500 0.933000
-11.819000 1.851000 0.044860 0.903300 0.905200
-11.809000 1.790000 0.043370 0.875000 0.874600
-11.799000 1.732000 0.041656 0.844600 0.844800
-11.789000 1.671000 0.040121 0.814300 0.815000
-11.779000 1.581000 0.037972 0.771800 0.771200
-11.769000 1.494000 0.035753 0.729300 0.730200
-11.759000 1.404000 0.033523 0.685300 0.685000
-11.749000 1.317000 0.031266 0.641800 0.641400
-11.739000 1.228000 0.029048 0.598000 0.598300
-11.729000 1.138000 0.026856 0.554900 0.554900
-11.719000 1.130000 0.026602 0.550800 0.550900
-11.709000 1.119000 0.026401 0.546900 0.546900
-11.699000 1.111000 0.026147 0.542900 0.543000
-11.689000 1.103000 0.025916 0.538800 0.538700
-11.679000 1.095000 0.025692 0.534800 0.534800
-11.669000 1.087000 0.025441 0.530500 0.530700
-11.659000 1.081000 0.025240 0.526400 0.526500
-11.649000 1.070000 0.024986 0.522400 0.522200
-11.639000 1.062000 0.024755 0.518400 0.518300
-11.629000 1.054000 0.024534 0.514300 0.514300
-11.619000 1.046000 0.024283 0.510200 0.510200
-11.609000 1.038000 0.024049 0.506200 0.506200
-11.599000 1.030000 0.023828 0.502100 0.502300
-11.589000 1.019000 0.023577 0.498000 0.497900
-11.579000 1.000000 0.023102 0.488300 0.488300
-11.569000 0.979000 0.022584 0.477900 0.477700
-11.559000 0.963000 0.022221 0.471000 0.471000
-11.549000 0.955000 0.021934 0.465400 0.465300
-11.539000 0.947000 0.021807 0.462800 0.462900
-11.529000 0.944000 0.021690 0.460300 0.460200
-11.519000 0.938000 0.021549 0.458100 0.458100
-11.509000 0.936000 0.021461 0.456400 0.456500
-11.499000 0.930000 0.021326 0.454400 0.454300
-11.489000 0.927000 0.021221 0.452300 0.452300
-11.479000 0.922000 0.021116 0.450400 0.450400
-11.469000 0.916000 0.021017 0.448300 0.448200
-11.459000 0.916000 0.020868 0.446300 0.446300
-11.449000 0.913000 0.020825 0.445700 0.445700
-11.439000 0.913000 0.020838 0.446200 0.446100
-11.429000 0.913000 0.020801 0.446400 0.446400
-11.419000 0.913000 0.020814 0.446600 0.446400
-11.409000 0.755800 0.017022 0.368900 0.368800
-11.399000 0.749000 0.016884 0.365900 0.366000
-11.389000 0.742200 0.016746 0.362700 0.362700
-11.379000 0.735400 0.016611 0.359900 0.359700
-11.369000 0.730600 0.016473 0.356800 0.356700
-11.359000 0.723500 0.016335 0.353700 0.353700
-11.349000 0.717000 0.016200 0.350500 0.350300
-11.339000 0.709900 0.016032 0.347600 0.347500
-11.329000 0.705400 0.015877 0.344400 0.344300
-11.319000 0.698600 0.015739 0.341300 0.341300
-11.309000 0.691800 0.015604 0.338200 0.338200
-11.299000 0.685000 0.015469 0.335100 0.335200
-11.289000 0.680500 0.015314 0.332000 0.331900
-11.279000 0.673400 0.015149 0.329000 0.329100
-11.269000 0.666900 0.014994 0.325900 0.325800
-11.259000 0.660100 0.014862 0.322800 0.322900
-11.249000 0.653300 0.014727 0.319700 0.319800
-11.239000 0.647800 0.014572 0.316700 0.316700
-11.229000 0.641400 0.014440 0.313600 0.313400
-11.219000 0.635100 0.014255 0.310400 0.310400
-11.209000 0.628400 0.014103 0.307200 0.307400
-11.199000 0.622100 0.013971 0.304200 0.304200
-11.189000 0.615800 0.013819 0.301100 0.301200
-11.179000 0.609400 0.013657 0.297900 0.297800
-11.169000 0.603100 0.013505 0.294800 0.294800
-11.159000 0.596500 0.013353 0.291600 0.291700
-11.149000 0.590200 0.013201 0.288500 0.288500
-11.139000 0.583900 0.013069 0.285200 0.285300
-11.129000 0.577300 0.012890 0.282300 0.282300
-11.119000 0.570800 0.012738 0.278800 0.279100
-11.109000 0.564500 0.012589 0.276000 0.275700
-11.099000 0.557900 0.012407 0.272500 0.272500
-11.089000 0.571600 0.012737 0.279300 0.279400
-11.079000 0.629500 0.014137 0.307800 0.307800
-11.069000 0.688700 0.015518 0.336900 0.337000
-11.059000 0.753900 0.016929 0.367900 0.367800
-11.049000 0.821300 0.018427 0.401800 0.401900
-11.039000 0.892500 0.019893 0.435600 0.435600
-11.029000 0.959000 0.021290 0.469400 0.469200
-11.019000 0.489600 0.010769 0.239200 0.239300
-11.009000 0.484800 0.010687 0.236900 0.237100
-10.999000 0.480000 0.010595 0.234800 0.234700
-10.989000 0.475400 0.010513 0.232400 0.232500
-10.979000 0.470600 0.010421 0.230100 0.230100
-10.969000 0.465800 0.010339 0.227700 0.227600
-10.959000 0.461000 0.010247 0.225200 0.225300
-10.949000 0.456200 0.010135 0.223200 0.223100
-10.939000 0.451600 0.010053 0.221000 0.220800
-10.929000 0.446600 0.009964 0.218500 0.218400
-10.919000 0.441800 0.009882 0.216100 0.216100
-10.909000 0.437000 0.009770 0.213700 0.213700
-10.899000 0.432200 0.009681 0.211400 0.211300
-10.889000 0.427700 0.009599 0.209000 0.209200
-10.879000 0.554200 0.011603 0.271200 0.271300
-10.869000 0.746900 0.014718 0.366600 0.366600
-10.859000 0.941000 0.017848 0.461600 0.461400
-10.849000 1.136000 0.021000 0.556100 0.556200
-10.839000 1.325000 0.024190 0.650800 0.650600
-10.829000 1.517000 0.027400 0.745000 0.745000
-10.819000 1.622000 0.029210 0.796300 0.797900
-10.809000 1.829000 0.032730 0.896800 0.897000
-10.799000 2.035000 0.036270 0.999000 1.000000
-10.789000 2.241000 0.039830 1.101000 1.102000
-10.779000 2.447000 0.043420 1.202000 1.204000
-10.769000 2.652000 0.046940 1.304000 1.304000
-10.759000 2.482000 0.044070 1.218000 1.218000
-10.749000 2.331000 0.041470 1.145000 1.145000
-10.739000 2.274000 0.040560 1.117000 1.116000
-10.729000 6.398000 0.109640 3.144000 3.143000
-10.719000 2.045000 0.036670 1.004400 1.005000
-10.709000 1.927000 0.034720 0.946100 0.946000
-10.699000 1.810000 0.032740 0.889800 0.888400
-10.689000 1.660000 0.030300 0.817400 0.817000
-10.679000 1.495000 0.027540 0.733600 0.733200
-10.669000 1.333000 0.024800 0.653700 0.653500
-10.659000 1.301000 0.024270 0.639500 0.639500
-10.649000 1.391000 0.025930 0.682500 0.682200
-10.639000 1.374000 0.025850 0.673900 0.674200
-10.629000 1.368000 0.026040 0.671500 0.671600
-10.619000 1.365000 0.026234 0.669300 0.668900
-10.609000 1.359000 0.026379 0.666900 0.667400
-10.599000 1.354000 0.026531 0.665000 0.664700
-10.589000 1.352000 0.026634 0.663200 0.663300
-10.579000 1.350000 0.026714 0.661500 0.661100
-10.569000 1.018000 0.019034 0.498800 0.498700
-10.559000 1.104000 0.020736 0.542000 0.542000
-10.549000 1.191000 0.022411 0.585500 0.585400
-10.539000 1.283000 0.024066 0.628800 0.628900
-10.529000 1.372000 0.025711 0.672500 0.672200
-10.519000 1.462000 0.027380 0.716800 0.716200
-10.509000 1.234000 0.023184 0.605400 0.605400
-10.499000 1.244000 0.023383 0.610300 0.610200
-10.489000 1.254000 0.023549 0.614800 0.614800
-10.479000 1.262000 0.023748 0.619600 0.619600
-10.469000 1.272000 0.023914 0.624200 0.624400
-10.459000 1.282000 0.024110 0.629000 0.629100
-10.449000 1.292000 0.024279 0.633900 0.633800
-10.439000 1.302000 0.024455 0.638700 0.638600
-10.429000 1.312000 0.024621 0.643500 0.643600
-10.419000 1.320000 0.024820 0.648400 0.648200
-10.409000 1.330000 0.024986 0.653000 0.652900
-10.399000 1.340000 0.025182 0.657800 0.657500
-10.389000 1.937000 0.036380 0.952400 0.950600
-10.379000 1.806000 0.033930 0.887500 0.889000
-10.369000 1.672000 0.031340 0.818800 0.819200
-10.359000 1.530000 0.028730 0.750600 0.750000
-10.349000 1.391000 0.026150 0.683100 0.682900
-10.339000 1.261000 0.023700 0.617300 0.617200
-10.329000 1.218000 0.022951 0.597200 0.597100
-10.319000 1.213000 0.022849 0.594400 0.594100
-10.309000 1.205000 0.022750 0.591200 0.591300
-10.299000 1.199000 0.022651 0.588400 0.588300
-10.289000 1.202000 0.022670 0.589400 0.589200
-10.279000 1.207000 0.022765 0.591600 0.591600
-10.269000 1.210000 0.022840 0.594100 0.594100
-10.259000 1.215000 0.022938 0.596300 0.596400
-10.249000 1.220000 0.023033 0.598700 0.598900
-10.239000 1.225000 0.023128 0.601200 0.601100
-10.229000 1.230000 0.023203 0.603400 0.603600
-10.219000 1.235000 0.023298 0.606000 0.606000
-10.209000 1.238000 0.023393 0.608400 0.608500
-10.199000 1.246000 0.023491 0.610600 0.610600
-10.189000 1.251000 0.023586 0.613400 0.613500
-10.179000 1.256000 0.023661 0.615800 0.615700
-10.169000 1.164000 0.021378 0.572500 0.572400
-10.159000 1.180000 0.021579 0.577300 0.577300
-10.149000 1.188000 0.021800 0.582000 0.582200
-10.139000 1.151000 0.021305 0.565000 0.565100
-10.129000 1.151000 0.021371 0.565700 0.565600
-10.119000 1.151000 0.021460 0.566000 0.566000
-10.109000 1.154000 0.021516 0.566600 0.566500
-10.099000 1.156000 0.021605 0.567100 0.567200
-10.089000 1.156000 0.021691 0.567600 0.567500
-10.079000 1.164000 0.021843 0.569800 0.569800
-10.069000 1.166000 0.022034 0.573800 0.573900
-10.059000 1.176000 0.022222 0.577800 0.577800
-10.049000 1.184000 0.022430 0.581800 0.581900
-10.039000 1.194000 0.022648 0.586000 0.586000
-10.029000 1.204000 0.022859 0.589800 0.589900
-10.019000 1.212000 0.023047 0.594100 0.593700
-10.009000 1.222000 0.023285 0.598100 0.597700
-9.999000 1.227000 0.023473 0.602200 0.601800
-9.989000 1.237000 0.023711 0.606100 0.605500
-9.979000 1.245000 0.023902 0.610300 0.610900
-9.969000 1.255000 0.024140 0.614500 0.614800
-9.959000 1.260000 0.024348 0.618300 0.618800
-9.949000 1.602000 0.032910 0.784700 0.785000
-9.939000 1.589000 0.032700 0.778900 0.777600
-9.929000 1.575000 0.032470 0.771000 0.772400
-9.919000 1.567000 0.032260 0.767500 0.767400
-9.909000 1.559000 0.032160 0.762100 0.763200
-9.899000 1.551000 0.032030 0.760800 0.760800
-9.889000 1.543000 0.031900 0.755500 0.755600
-9.879000 1.535000 0.031750 0.752300 0.752600
-9.869000 1.527000 0.031650 0.747000 0.748200
-9.859000 1.519000 0.031500 0.743700 0.744000
-9.849000 1.512000 0.031320 0.740500 0.739600
-9.839000 1.501000 0.031170 0.737300 0.736400
-9.829000 1.454000 0.030440 0.711800 0.711800
-9.819000 1.441000 0.030180 0.704900 0.706000
-9.809000 1.428000 0.029970 0.700000 0.699200
-9.799000 1.415000 0.029710 0.692800 0.693200
-9.789000 1.402000 0.029480 0.685900 0.686400
-9.779000 1.389000 0.029220 0.679000 0.679600
-9.769000 1.373000 0.028960 0.672100 0.672800
-9.759000 1.365000 0.028730 0.667800 0.666600
-9.749000 1.355000 0.028530 0.663600 0.664400
-9.739000 1.347000 0.028330 0.658100 0.658400
-9.729000 1.334000 0.028080 0.652600 0.652400
-9.719000 1.323000 0.027880 0.647300 0.647200
-9.709000 1.313000 0.027660 0.643700 0.644200
-9.699000 1.303000 0.027410 0.638400 0.638400
-9.689000 1.295000 0.027260 0.634100 0.634800
-9.679000 1.300000 0.027460 0.637100 0.636400
-9.669000 1.305000 0.027610 0.638100 0.638200
-9.659000 1.310000 0.027780 0.641100 0.642000
-9.649000 1.312000 0.027930 0.642300 0.641800
-9.639000 1.320000 0.028080 0.643400 0.643600
-9.629000 1.320000 0.028230 0.646300 0.646600
-9.619000 1.322000 0.028380 0.647600 0.647600
-9.609000 1.330000 0.028590 0.650800 0.650400
-9.599000 1.332000 0.028740 0.651200 0.652400
-9.589000 1.337000 0.028890 0.653700 0.652400
-9.579000 1.340000 0.029040 0.655900 0.656600
-9.569000 1.345000 0.029170 0.658500 0.657600
-9.559000 1.350000 0.029350 0.658700 0.658800
-9.549000 1.353000 0.029480 0.661300 0.662800
-9.539000 1.355000 0.029610 0.663700 0.663200
-9.529000 1.363000 0.029790 0.664400 0.665400
-9.519000 1.255000 0.026700 0.614000 0.614000
-9.509000 1.263000 0.027000 0.618000 0.617800
-9.499000 1.273000 0.027280 0.622200 0.622000
-9.489000 1.281000 0.027550 0.626300 0.627200
-9.479000 1.283000 0.027770 0.627500 0.627200
-9.469000 1.278000 0.027850 0.624300 0.624800
-9.459000 1.288000 0.028170 0.627700 0.628200
-9.449000 1.296000 0.028470 0.632800 0.633000
-9.439000 1.306000 0.028820 0.637600 0.637800
-9.429000 1.308000 0.029020 0.638300 0.638800
-9.419000 1.314000 0.029270 0.642900 0.642200
-9.409000 1.319000 0.029490 0.643600 0.644400
-9.399000 1.326000 0.029760 0.648600 0.648000
-9.389000 1.329000 0.029890 0.648400 0.648600
-9.379000 1.321000 0.029820 0.644800 0.644000
-9.369000 1.313000 0.029720 0.641100 0.641600
-9.359000 1.305000 0.029650 0.637500 0.637000
-9.349000 1.295000 0.029560 0.633800 0.634400
-9.339000 1.290000 0.029460 0.630100 0.629600
-9.329000 1.285000 0.029340 0.627300 0.627000
-9.319000 1.277000 0.029240 0.622800 0.622600
-9.309000 1.269000 0.029120 0.619400 0.619000
-9.299000 1.261000 0.029000 0.615700 0.615400
-9.289000 1.253000 0.028880 0.611900 0.611800
-9.279000 1.243000 0.028760 0.608200 0.608200
-9.269000 1.238000 0.028610 0.604600 0.604600
-9.259000 1.230000 0.028470 0.600900 0.601000
-9.249000 1.225000 0.028320 0.597100 0.597200
-9.239000 1.217000 0.028170 0.593400 0.592600
-9.229000 1.207000 0.028000 0.589600 0.590200
-9.219000 1.202000 0.027930 0.587000 0.586000
-9.209000 1.204000 0.028110 0.587700 0.588000
-9.199000 1.204000 0.028290 0.588600 0.588200
-9.189000 1.206000 0.028440 0.589700 0.590200
-9.179000 1.224000 0.030700 0.596300 0.596200
-9.169000 1.250000 0.034940 0.607500 0.607600
-9.159000 1.276000 0.039420 0.618500 0.618400
-9.149000 1.302000 0.044120 0.629500 0.629600
-9.139000 1.331000 0.049120 0.640900 0.640400
-9.129000 1.357000 0.054360 0.651100 0.651000
-9.119000 1.383000 0.059870 0.661700 0.662800
-9.109000 1.420000 0.065760 0.676600 0.676800
-9.099000 1.453000 0.071870 0.691200 0.690600
-9.089000 1.492000 0.078240 0.705800 0.705800
-9.079000 1.523000 0.085040 0.717600 0.718800
-9.069000 1.551000 0.091820 0.730400 0.731000
-9.059000 1.631000 0.100300 0.763900 0.764000
-9.049000 1.627000 0.085400 0.772300 0.770800
-9.039000 1.602000 0.087840 0.757500 0.758000
-9.029000 1.576000 0.090200 0.740900 0.742400
-9.019000 1.551000 0.092700 0.728200 0.728600
-9.009000 1.523000 0.095500 0.715600 0.715600
-8.999000 1.500000 0.097800 0.699400 0.700000
-8.989000 1.472000 0.100600 0.685900 0.685800
-8.979000 1.446000 0.103100 0.672300 0.671000
-8.969000 1.421000 0.106200 0.656500 0.657600
-8.959000 1.657000 0.117700 0.770600 0.770600
-8.949000 1.631000 0.120500 0.754900 0.755800
-8.939000 1.603000 0.123600 0.739900 0.740000
-8.929000 1.575000 0.126200 0.725200 0.724200
-8.919000 1.546000 0.129300 0.708100 0.708500
-8.909000 1.518000 0.132400 0.693000 0.692900
-8.899000 1.490000 0.135500 0.677200 0.677000
-8.889000 1.462000 0.138600 0.661000 0.661100
-8.879000 1.433000 0.141700 0.645300 0.645400
-8.869000 1.423000 0.146900 0.637400 0.637700
-8.859000 1.442000 0.156100 0.642500 0.642400
-8.849000 1.460000 0.165200 0.647000 0.647300
-8.839000 1.481000 0.175200 0.651800 0.651800
-8.829000 1.497000 0.185100 0.656100 0.655900
-8.819000 1.515000 0.196100 0.660100 0.659800
-8.809000 1.536000 0.207000 0.665500 0.665300
-8.799000 1.562000 0.217700 0.672500 0.672800
-8.789000 1.702000 0.229000 0.735700 0.736400
-8.779000 1.754000 0.238600 0.756900 0.756200
-8.769000 1.803000 0.248100 0.776400 0.776200
-8.759000 1.852000 0.257900 0.798900 0.797200
-8.749000 1.904000 0.268000 0.817300 0.817200
-8.739000 1.961000 0.278400 0.839600 0.840200
-8.729000 2.010000 0.288200 0.861900 0.862200
-8.719000 2.077000 0.298800 0.888400 0.887600
-8.709000 2.113000 0.309100 0.904100 0.902600
-8.699000 2.154000 0.319700 0.915800 0.917200
-8.689000 2.193000 0.330000 0.931400 0.931800
-8.679000 2.231000 0.340900 0.944800 0.945400
-8.669000 2.254000 0.351400 0.954100 0.952200
-8.659000 2.272000 0.362200 0.953400 0.953400
-8.649000 2.285000 0.373000 0.954600 0.954800
-8.639000 2.352000 0.418700 0.968500 0.966800
-8.629000 2.373000 0.434000 0.968600 0.968400
-8.619000 2.391000 0.449300 0.970700 0.972000
-8.609000 2.412000 0.464500 0.974800 0.973800
-8.599000 2.436000 0.479800 0.977000 0.977400
-8.589000 2.454000 0.495600 0.979200 0.979200
-8.579000 2.196000 0.504400 0.845100 0.845200
-8.569000 2.217000 0.519500 0.849100 0.850200
-8.559000 2.235000 0.530200 0.852900 0.854400
-8.549000 2.601000 0.658700 0.972200 0.971000
-8.539000 2.824000 0.782300 1.020800 1.020000
-8.529000 3.044000 0.904800 1.070000 1.071000
-8.519000 3.269000 1.022000 1.125000 1.127000
-8.509000 3.494000 1.138000 1.180000 1.176000
-8.499000 3.228000 0.874100 1.175000 1.177000
-8.489000 3.419000 0.889200 1.264000 1.263000
-8.479000 3.789000 0.908400 1.441000 1.439000
-8.469000 4.164000 0.935000 1.614000 1.615000
-8.459000 4.546000 0.970000 1.788000 1.788000
-8.449000 4.923000 1.004000 1.959000 1.959000
-8.439000 5.293000 1.039000 2.128000 2.127000
-8.429000 3.898000 1.009000 1.442000 1.443000
-8.419000 3.089000 0.983000 1.054000 1.052000
-8.409000 2.268000 0.964000 0.652200 0.652000
-8.399000 1.856000 0.953500 0.449700 0.449500
-8.389000 1.434000 0.950500 0.241900 0.241700
-8.379000 1.326000 0.953400 0.186600 0.186410
-8.369000 1.320000 0.949600 0.186900 0.186740
-8.359000 1.317000 0.942800 0.187100 0.186960
-8.349000 1.312000 0.936000 0.186700 0.186670
-8.339000 1.304000 0.929200 0.186400 0.186360
-8.329000 1.298000 0.925700 0.185700 0.185750
-8.319000 1.292000 0.918900 0.184500 0.184620
-8.309000 1.286000 0.918600 0.184600 0.184730
-8.299000 1.297000 0.922800 0.187700 0.187650
-8.289000 1.310000 0.926300 0.190400 0.190370
-8.279000 1.350000 0.955300 0.196900 0.196900
-8.269000 1.371000 0.965000 0.201900 0.202000
-8.259000 1.387000 0.976000 0.206800 0.206700
-8.249000 2.442000 0.999000 0.721800 0.722400
-8.239000 2.684000 1.018000 0.833600 0.832800
-8.229000 2.926000 1.039000 0.944700 0.944200
-8.219000 3.163000 1.058000 1.053900 1.053400
-8.209000 3.395000 1.074000 1.161300 1.161000
-8.199000 3.632000 1.092000 1.271000 1.270000
-8.189000 6.680000 1.215000 2.733000 2.733000
-8.179000 5.810000 1.332000 2.237000 2.239000
-8.169000 5.248000 1.329000 1.959000 1.961000
-8.159000 4.789000 1.316000 1.738000 1.738000
-8.149000 4.337000 1.286000 1.527000 1.525000
-8.139000 3.951000 1.246000 1.353000 1.351000
-8.129000 3.938000 1.267000 1.335000 1.335000
-8.119000 3.927000 1.291000 1.319000 1.322000
-8.109000 4.018000 1.362000 1.329000 1.328000
-8.099000 4.224000 1.492000 1.365000 1.365000
-8.089000 4.447000 1.624000 1.413000 1.412000
-8.079000 4.579000 1.682000 1.449000 1.448000
-8.069000 4.677000 1.717000 1.479000 1.479000
-8.059000 3.801000 1.746000 1.030000 1.027900
-8.049000 3.878000 1.775000 1.054000 1.054000
-8.039000 3.960000 1.801000 1.077000 1.076900
-8.029000 4.050000 1.833000 1.110000 1.108300
-8.019000 4.146000 1.859000 1.141000 1.140700
-8.009000 3.475000 1.531000 0.973400 0.973400
-7.999000 3.300000 1.433000 0.934600 0.933700
-7.989000 3.124000 1.335000 0.894200 0.894600
-7.979000 2.946000 1.240000 0.854400 0.855000
-7.969000 2.770000 1.145000 0.812800 0.812800
-7.959000 2.595000 1.052000 0.770800 0.770400
-7.949000 2.499000 0.999000 0.748800 0.749000
-7.939000 2.422000 0.954000 0.733600 0.733900
-7.929000 2.342000 0.910500 0.716000 0.716600
-7.919000 2.265000 0.866400 0.699200 0.699000
-7.909000 2.191000 0.823800 0.683200 0.684100
-7.899000 2.557000 0.855300 0.853000 0.853600
-7.889000 2.636000 0.842900 0.895600 0.896000
-7.879000 2.714000 0.846200 0.934800 0.936000
-7.869000 2.795000 0.854200 0.969800 0.968500
-7.859000 2.651000 0.780800 0.935800 0.935800
-7.849000 2.438000 0.684400 0.877400 0.876200
-7.839000 2.227000 0.595700 0.814600 0.813500
-7.829000 2.011000 0.514900 0.748400 0.747300
-7.819000 1.654000 0.420900 0.617400 0.617000
-7.809000 0.942400 0.252200 0.345900 0.345900
-7.799000 0.445000 0.109600 0.167680 0.167600
-7.789000 0.447500 0.108800 0.169360 0.169500
-7.779000 0.451700 0.108500 0.171620 0.171610
-7.769000 0.461100 0.109500 0.176060 0.175780
-7.759000 0.470500 0.110400 0.180220 0.179970
-7.749000 0.479900 0.111400 0.184280 0.184460
-7.739000 0.489500 0.112600 0.188540 0.188460
-7.729000 0.498900 0.113800 0.192620 0.192670
-7.719000 0.506300 0.114800 0.196020 0.195770
-7.709000 0.512000 0.115000 0.198400 0.198420
-7.699000 0.518000 0.116000 0.201100 0.201000
-7.689000 0.523800 0.116200 0.203800 0.203870
-7.679000 0.529500 0.116700 0.206400 0.206450
-7.669000 0.535200 0.117200 0.208800 0.208730
-7.659000 0.540900 0.117900 0.211600 0.211510
-7.649000 0.546900 0.118700 0.214200 0.214190
-7.639000 0.552600 0.118900 0.216500 0.216770
-7.629000 0.558300 0.119900 0.219400 0.219300
-7.619000 0.564300 0.120100 0.221800 0.221800
-7.609000 0.569900 0.121100 0.224700 0.224600
-7.599000 0.575900 0.121900 0.227100 0.227100
-7.589000 0.581900 0.122400 0.229700 0.229700
-7.579000 0.587500 0.123100 0.232200 0.232300
-7.569000 0.593500 0.123600 0.234500 0.234800
-7.559000 0.599100 0.124600 0.237300 0.237200
-7.549000 0.604500 0.124800 0.239700 0.239500
-7.539000 0.610200 0.125600 0.242000 0.242100
-7.529000 0.615800 0.126600 0.244700 0.244700
-7.519000 0.621200 0.127100 0.247000 0.247000
-7.509000 0.626800 0.127900 0.249600 0.249600
-7.499000 0.632500 0.128300 0.252000 0.252000
-7.489000 0.637800 0.129100 0.254400 0.254400
-7.479000 0.643400 0.129600 0.256800 0.257000
-7.469000 0.649100 0.130600 0.259100 0.259400
-7.459000 0.654700 0.131400 0.261800 0.261800
-7.449000 0.759300 0.151700 0.303200 0.303200
-7.439000 0.788600 0.158700 0.315700 0.316000
-7.429000 0.822200 0.165700 0.328600 0.328400
-7.419000 0.856200 0.173000 0.341200 0.341100
-7.409000 0.887200 0.180800 0.353700 0.353600
-7.399000 0.921200 0.188400 0.366000 0.366000
-7.389000 0.955400 0.196400 0.378500 0.378300
-7.379000 0.983600 0.204800 0.390500 0.390500
-7.369000 1.011200 0.212400 0.400500 0.400500
-7.359000 1.039000 0.220000 0.410300 0.410200
-7.349000 1.066000 0.227600 0.420000 0.419900
-7.339000 1.093000 0.235800 0.429400 0.429300
-7.329000 1.122000 0.243700 0.438600 0.438400
-7.319000 1.149000 0.252100 0.447700 0.447900
-7.309000 1.176000 0.261300 0.456900 0.456800
-7.299000 1.202000 0.270000 0.465600 0.465800
-7.289000 1.229000 0.279200 0.474600 0.474600
-7.279000 1.255000 0.288900 0.483400 0.483400
-7.269000 1.279000 0.298400 0.491800 0.491700
-7.259000 1.316000 0.309700 0.502400 0.502400
-7.249000 1.979000 0.495100 0.743000 0.743300
-7.239000 2.833000 0.780100 1.025400 1.025900
-7.229000 3.426000 1.050300 1.188400 1.188000
-7.219000 3.768000 1.280000 1.242400 1.243500
-7.209000 4.106000 1.528000 1.288000 1.288800
-7.199000 3.990000 1.566000 1.212600 1.210800
-7.189000 4.104000 1.719000 1.190800 1.191400
-7.179000 4.752000 2.084000 1.331000 1.333900
-7.169000 4.851000 2.305000 1.271000 1.272500
-7.159000 4.941000 2.530000 1.204200 1.204900
-7.149000 5.031000 2.767000 1.131400 1.130300
-7.139000 4.907000 2.840000 1.033000 1.032400
-7.129000 5.192000 3.103000 1.046400 1.045400
-7.119000 4.236000 2.857000 0.688800 0.688900
-7.109000 3.329000 2.442000 0.443600 0.443600
-7.099000 3.284000 2.516000 0.384000 0.384300
-7.089000 3.272000 2.614000 0.328900 0.328800
-7.079000 3.268000 2.714000 0.278100 0.278100
-7.069000 3.264000 2.803000 0.231100 0.231110
-7.059000 4.292000 3.819000 0.236500 0.236620
-7.049000 2.057000 1.794000 0.131840 0.131790
-7.039000 1.926000 1.691000 0.117400 0.117540
-7.029000 1.798000 1.591000 0.103940 0.103850
-7.019000 1.668000 1.483000 0.091640 0.091670
-7.009000 1.535000 1.375000 0.080280 0.080440
-6.999000 1.405000 1.267000 0.070120 0.070150
-6.989000 1.278000 1.151000 0.061080 0.061090
-6.979000 1.318000 1.200000 0.058230 0.058150
-6.969000 1.400000 1.284000 0.057570 0.057560
-6.959000 1.485000 1.369000 0.057940 0.057970
-6.949000 1.573000 1.452000 0.059550 0.059530
-6.939000 0.878900 0.811700 0.033410 0.033410
-6.929000 0.848800 0.783900 0.031940 0.031940
-6.919000 0.820700 0.758500 0.030500 0.030510
-6.909000 0.787300 0.730200 0.029110 0.029100
-6.899000 0.759200 0.704200 0.027700 0.027710
-6.889000 0.729700 0.677900 0.026340 0.026340
-6.879000 0.701300 0.649600 0.025050 0.025040
-6.869000 0.670900 0.623300 0.023740 0.023750
-6.859000 0.640200 0.596200 0.022460 0.022450
-6.849000 0.611600 0.569100 0.021210 0.021210
-6.839000 0.582100 0.542000 0.020020 0.020010
-6.829000 0.552000 0.514700 0.018830 0.018830
-6.819000 0.522700 0.487400 0.017660 0.017659
-6.809000 0.492600 0.459800 0.016530 0.016556
-6.799000 0.462900 0.432200 0.015430 0.015451
-6.789000 0.433100 0.404400 0.014370 0.014363
-6.779000 0.403600 0.376600 0.013320 0.013333
-6.769000 0.393700 0.368100 0.012870 0.012896
-6.759000 0.407000 0.380900 0.013170 0.013171
-6.749000 0.420400 0.393200 0.013510 0.013505
-6.739000 0.433600 0.405800 0.013910 0.013920
-6.729000 0.446800 0.418100 0.014390 0.014390
-6.719000 0.460000 0.430500 0.014920 0.014920
-6.709000 0.473300 0.442400 0.015510 0.015500
-6.699000 0.486900 0.454500 0.016160 0.016170
-6.689000 0.000000 0.000000 0.000000 0.000000
-6.679000 0.000000 0.000000 0.000000 0.000000
-6.669000 0.000000 0.000000 0.000000 0.000000
-6.659000 0.000000 0.000000 0.000000 0.000000
-6.649000 0.000000 0.000000 0.000000 0.000000
-6.639000 0.000000 0.000000 0.000000 0.000000
-6.629000 0.000000 0.000000 0.000000 0.000000
-6.619000 0.000000 0.000000 0.000000 0.000000
-6.609000 0.000000 0.000000 0.000000 0.000000
-6.599000 0.000000 0.000000 0.000000 0.000000
-6.589000 0.000000 0.000000 0.000000 0.000000
-6.579000 0.000000 0.000000 0.000000 0.000000
-6.569000 0.000000 0.000000 0.000000 0.000000
-6.559000 0.000000 0.000000 0.000000 0.000000
-6.549000 0.000000 0.000000 0.000000 0.000000
-6.539000 0.000000 0.000000 0.000000 0.000000
-6.529000 0.000000 0.000000 0.000000 0.000000
-6.519000 0.000000 0.000000 0.000000 0.000000
-6.509000 0.000000 0.000000 0.000000 0.000000
-6.499000 0.000000 0.000000 0.000000 0.000000
-6.489000 0.000000 0.000000 0.000000 0.000000
-6.479000 0.000000 0.000000 0.000000 0.000000
-6.469000 0.000000 0.000000 0.000000 0.000000
-6.459000 0.000000 0.000000 0.000000 0.000000
-6.449000 0.000000 0.000000 0.000000 0.000000
-6.439000 0.000000 0.000000 0.000000 0.000000
-6.429000 0.000000 0.000000 0.000000 0.000000
-6.419000 0.000000 0.000000 0.000000 0.000000
-6.409000 0.000000 0.000000 0.000000 0.000000
-6.399000 0.091180 0.040040 0.025584 0.025577
-6.389000 1.114000 0.921700 0.097200 0.097170
-6.379000 1.086000 0.847700 0.119520 0.119480
-6.369000 1.056000 0.779000 0.139500 0.139630
-6.359000 1.030000 0.714100 0.157520 0.157430
-6.349000 1.003000 0.654600 0.173200 0.173070
-6.339000 1.077000 0.688500 0.193860 0.193890
-6.329000 2.506000 1.588000 0.458800 0.459100
-6.319000 1.478000 1.008000 0.235640 0.235740
-6.309000 1.635000 1.131000 0.251800 0.251600
-6.299000 1.792000 1.254000 0.266920 0.266920
-6.289000 1.946000 1.380000 0.281900 0.281800
-6.279000 2.102000 1.508000 0.296300 0.296200
-6.269000 2.258000 1.636000 0.309800 0.309900
-6.259000 2.414000 1.769000 0.322900 0.323000
-6.249000 2.569000 1.897000 0.335600 0.335600
-6.239000 1.661000 1.186000 0.237560 0.237360
-6.229000 1.606000 1.146000 0.229380 0.229180
-6.219000 1.549000 1.107000 0.221080 0.221080
-6.209000 1.497000 1.070000 0.212940 0.213040
-6.199000 1.440000 1.025000 0.205080 0.204880
-6.189000 1.383000 0.988000 0.197100 0.197100
-6.179000 1.337000 0.952800 0.191200 0.191300
-6.169000 1.286000 0.916700 0.185800 0.185700
-6.159000 1.243000 0.880900 0.180580 0.180280
-6.149000 1.195000 0.848100 0.174940 0.174940
-6.139000 1.113000 0.779000 0.166720 0.166840
-6.129000 1.088000 0.760300 0.162900 0.162820
-6.119000 1.064000 0.744900 0.158980 0.159190
-6.109000 1.050000 0.736600 0.157200 0.157210
-6.099000 1.041000 0.729200 0.155440 0.155460
-6.089000 1.030000 0.722100 0.153980 0.154020
-6.079000 1.019000 0.714700 0.152420 0.152470
-6.069000 1.011000 0.709600 0.150960 0.150820
-6.059000 0.997000 0.702200 0.149500 0.149260
-6.049000 0.991000 0.695100 0.147820 0.147990
-6.039000 0.980000 0.687700 0.146340 0.146410
-6.029000 0.969000 0.680300 0.144960 0.144920
-6.019000 0.961000 0.673100 0.143560 0.143520
-6.009000 0.950000 0.665900 0.141960 0.141910
-5.999000 0.942000 0.659000 0.140460 0.140600
-5.989000 0.928000 0.651600 0.138960 0.138990
-5.979000 0.920000 0.644400 0.137760 0.137680
-5.969000 0.909000 0.637300 0.136140 0.136040
-5.959000 0.901000 0.630200 0.134820 0.134700
-5.949000 0.890000 0.623300 0.133520 0.133590
-5.939000 0.884000 0.617500 0.132840 0.132720
-5.929000 0.875100 0.611400 0.131940 0.131820
-5.919000 0.867100 0.605600 0.130960 0.130940
-5.909000 0.859400 0.599600 0.130260 0.130240
-5.899000 0.851100 0.591700 0.129220 0.129080
-5.889000 0.839200 0.582800 0.128080 0.127800
-5.879000 0.829200 0.574500 0.126520 0.126800
-5.869000 0.816800 0.565800 0.125560 0.125590
-5.859000 0.807300 0.557200 0.124300 0.124490
-5.849000 0.794900 0.548300 0.123320 0.123460
-5.839000 0.785500 0.539700 0.122160 0.122040
-5.829000 0.772800 0.531400 0.120880 0.120910
-5.819000 0.763400 0.522300 0.120000 0.119870
-5.809000 0.751000 0.513700 0.118800 0.118610
-5.799000 0.745200 0.509500 0.118020 0.118140
-5.789000 0.743100 0.507100 0.117540 0.117480
-5.779000 0.737800 0.504100 0.116980 0.117140
-5.769000 0.735700 0.501500 0.116500 0.116480
-5.759000 0.730600 0.498800 0.116040 0.115940
-5.749000 0.728500 0.495900 0.115560 0.115470
-5.739000 0.723700 0.493500 0.115080 0.115110
-5.729000 0.718400 0.490300 0.114600 0.114650
-5.719000 0.716000 0.487900 0.114320 0.114080
-5.709000 0.712700 0.485000 0.113640 0.113620
-5.699000 0.708900 0.482600 0.113160 0.113250
-5.689000 0.705300 0.479700 0.112980 0.112790
-5.679000 0.701500 0.476800 0.112300 0.112420
-5.669000 0.697400 0.473600 0.111720 0.111740
-5.659000 0.693600 0.471000 0.111320 0.111350
-5.649000 0.689500 0.468100 0.110820 0.110860
-5.639000 0.685400 0.464900 0.110340 0.110490
-5.629000 0.681600 0.462000 0.109940 0.109990
-5.619000 0.677800 0.458900 0.109440 0.109600
-5.609000 0.673800 0.455700 0.108940 0.109100
-5.599000 0.669700 0.452800 0.108440 0.108510
-5.589000 0.666200 0.449700 0.108060 0.108030
-5.579000 0.661900 0.446500 0.107640 0.107620
-5.569000 0.657800 0.443400 0.107140 0.107120
-5.559000 0.654100 0.440500 0.106740 0.106620
-5.549000 0.689700 0.456900 0.116360 0.116260
-5.539000 0.790200 0.504900 0.142860 0.142960
-5.529000 0.889600 0.551800 0.169820 0.170020
-5.519000 0.991000 0.597700 0.197720 0.197620
-5.509000 1.095000 0.642500 0.226280 0.226480
-5.499000 1.199000 0.685100 0.255800 0.255600
-5.489000 1.298000 0.726500 0.285880 0.285680
-5.479000 1.405000 0.767900 0.316500 0.316600
-5.469000 1.475000 0.785400 0.344300 0.344300
-5.459000 1.579000 0.826800 0.377200 0.376800
-5.449000 1.349000 0.723000 0.313180 0.313180
-5.439000 1.246000 0.670600 0.288440 0.288540
-5.429000 1.263000 0.671800 0.294700 0.294800
-5.419000 1.275000 0.673100 0.300860 0.300960
-5.409000 1.289000 0.673800 0.307340 0.307240
-5.399000 1.301000 0.674800 0.313800 0.313800
-5.389000 1.318000 0.675500 0.320180 0.320180
-5.379000 1.330000 0.676000 0.326860 0.326860
-5.369000 1.344000 0.676400 0.333600 0.333700
-5.359000 1.356000 0.676600 0.340600 0.340700
-5.349000 1.368000 0.676500 0.347500 0.347600
-5.339000 1.388000 0.676200 0.354700 0.354500
-5.329000 1.400000 0.676100 0.361700 0.361900
-5.319000 1.412000 0.675800 0.368900 0.369000
-5.309000 1.429000 0.675200 0.376500 0.376400
-5.299000 1.441000 0.674300 0.383800 0.383800
-5.289000 1.453000 0.672900 0.390700 0.390800
-5.279000 1.465000 0.671000 0.397200 0.397100
-5.269000 1.499000 0.676100 0.409900 0.410100
-5.259000 1.531000 0.682900 0.424800 0.425100
-5.249000 1.571000 0.689100 0.439900 0.440300
-5.239000 1.606000 0.694400 0.455600 0.456400
-5.229000 1.638000 0.697600 0.470600 0.470500
-5.219000 1.656000 0.694400 0.480600 0.480300
-5.209000 1.674000 0.692900 0.489800 0.490500
-5.199000 1.689000 0.691400 0.499800 0.500400
-5.189000 1.710000 0.689900 0.510200 0.510600
-5.179000 1.728000 0.685500 0.520200 0.520600
-5.169000 1.743000 0.682500 0.530400 0.531400
-5.159000 1.761000 0.677500 0.541200 0.541200
-5.149000 1.774000 0.674200 0.551400 0.550900
-5.139000 1.789000 0.668000 0.560200 0.560500
-5.129000 1.802000 0.662400 0.571000 0.570200
-5.119000 1.815000 0.656300 0.579800 0.579700
-5.109000 1.833000 0.649700 0.590600 0.591400
-5.099000 1.932000 0.663400 0.633400 0.634800
-5.089000 2.141000 0.696900 0.723000 0.723300
-5.079000 2.355000 0.721700 0.817000 0.815900
-5.069000 2.572000 0.742400 0.914800 0.915000
-5.059000 2.785000 0.751000 1.017400 1.016100
-5.049000 3.049000 0.765200 1.142200 1.142100
-5.039000 3.763000 0.817300 1.473400 1.470800
-5.029000 3.604000 0.787500 1.409600 1.409500
-5.019000 3.435000 0.760600 1.339000 1.338000
-5.009000 3.266000 0.737000 1.263400 1.264500
-4.999000 3.093000 0.713100 1.191000 1.191000
-4.989000 2.920000 0.692700 1.112800 1.113700
-4.979000 2.743000 0.672400 1.035800 1.034500
-4.969000 2.581000 0.653300 0.964600 0.966300
-4.959000 2.535000 0.641000 0.945800 0.944300
-4.949000 2.483000 0.629300 0.925400 0.926100
-4.939000 2.428000 0.618100 0.904600 0.905900
-4.929000 2.373000 0.606800 0.882800 0.883800
-4.919000 2.321000 0.596600 0.863800 0.863400
-4.909000 2.187000 0.577800 0.805000 0.804900
-4.899000 1.990000 0.545600 0.722200 0.722700
-4.889000 1.841000 0.515000 0.664000 0.662700
-4.879000 1.820000 0.510400 0.653800 0.653900
-4.869000 1.791000 0.506100 0.643200 0.642800
-4.859000 2.027000 0.556800 0.735000 0.733800
-4.849000 1.964000 0.580800 0.690600 0.692000
-4.839000 1.901000 0.600200 0.649200 0.650200
-4.829000 1.832000 0.614700 0.609800 0.611000
-4.819000 1.768000 0.624800 0.572200 0.571800
-4.809000 1.702800 0.630000 0.536600 0.536900
-4.799000 1.635000 0.630600 0.503200 0.503300
-4.789000 1.570400 0.626600 0.471600 0.471700
-4.779000 1.503000 0.617400 0.442300 0.442600
-4.769000 1.436000 0.604100 0.415600 0.415400
-4.759000 1.366000 0.585700 0.390500 0.390500
-4.749000 0.932800 0.371300 0.281000 0.281100
-4.739000 0.929400 0.369300 0.280300 0.280200
-4.729000 0.926000 0.367200 0.279600 0.279700
-4.719000 1.583000 0.412500 0.585200 0.584700
-4.709000 1.871000 0.430400 0.720800 0.721500
-4.699000 2.159000 0.452500 0.854600 0.854400
-4.689000 2.855000 0.669700 1.091200 1.091300
-4.679000 3.166000 0.725200 1.220000 1.219700
-4.669000 3.475000 0.785600 1.346000 1.346600
-4.659000 3.332000 0.782800 1.274400 1.274500
-4.649000 3.520000 0.813500 1.354000 1.352400
-4.639000 3.591000 0.821600 1.385800 1.384400
-4.629000 3.696000 0.851500 1.422800 1.422500
-4.619000 3.798000 0.883200 1.457000 1.458800
-4.609000 4.193000 0.929000 1.629600 1.628600
-4.599000 4.808000 0.988000 1.910200 1.909200
-4.589000 5.421000 1.058000 2.180200 2.183200
-4.579000 6.012000 1.118000 2.447600 2.447600
-4.569000 8.110000 1.140000 3.489000 3.487000
-4.559000 6.936000 1.072000 2.933800 2.933800
-4.549000 8.432000 1.140000 3.637000 3.638000
-4.539000 5.435000 1.055000 2.191800 2.191800
-4.529000 4.503000 1.019000 1.740400 1.742400
-4.519000 3.736000 0.979000 1.379600 1.379400
-4.509000 3.524000 0.946000 1.290400 1.288800
-4.499000 3.381000 0.943200 1.216400 1.217600
-4.489000 3.236000 0.946000 1.145000 1.144900
-4.479000 3.089000 0.942000 1.074200 1.075400
-4.469000 2.945000 0.937800 1.006200 1.003600
-4.459000 2.802000 0.929800 0.935000 0.935600
-4.449000 2.711000 0.927200 0.892400 0.891500
-4.439000 2.669000 0.932600 0.868400 0.869100
-4.429000 2.630000 0.935000 0.848000 0.848800
-4.419000 2.589000 0.934200 0.827600 0.828100
-4.409000 2.550000 0.939400 0.806200 0.805500
-4.399000 2.512000 0.938200 0.787000 0.787000
-4.389000 2.474000 0.940200 0.766400 0.766200
-4.379000 2.433000 0.941800 0.747200 0.747400
-4.369000 2.395000 0.943400 0.725600 0.724600
-4.359000 2.275000 0.929800 0.672200 0.674200
-4.349000 2.254000 0.929400 0.660600 0.660700
-4.339000 2.228000 0.935000 0.647800 0.647000
-4.329000 2.207000 0.937600 0.634800 0.635200
-4.319000 2.189000 0.937400 0.625600 0.626200
-4.309000 2.180000 0.943600 0.618600 0.617600
-4.299000 2.171000 0.950000 0.612200 0.613100
-4.289000 2.167000 0.953400 0.606600 0.606700
-4.279000 2.158000 0.959600 0.601000 0.600000
-4.269000 2.152000 0.966000 0.594400 0.595400
-4.259000 2.114000 0.943400 0.587000 0.586500
-4.249000 2.102000 0.940000 0.579800 0.579600
-4.239000 2.088000 0.939400 0.573200 0.572800
-4.229000 2.073000 0.938800 0.568200 0.568100
-4.219000 2.061000 0.938200 0.561400 0.561200
-4.209000 2.044000 0.934600 0.554200 0.554900
-4.199000 2.029000 0.931000 0.549600 0.548800
-4.189000 2.015000 0.930200 0.542400 0.542300
-4.179000 2.003000 0.929400 0.535400 0.535900
-4.169000 1.986000 0.925600 0.530200 0.529600
-4.159000 1.969000 0.921600 0.523200 0.523400
-4.149000 1.960000 0.920800 0.517400 0.517700
-4.139000 1.943000 0.920000 0.511200 0.511100
-4.129000 1.926000 0.919000 0.505000 0.504700
-4.119000 1.914000 0.917800 0.498200 0.497800
-4.109000 1.900000 0.916800 0.491200 0.491500
-4.099000 1.883000 0.915600 0.485100 0.485000
-4.089000 1.869000 0.911600 0.478600 0.478500
-4.079000 1.855000 0.910600 0.472100 0.472300
-4.069000 1.843000 0.909800 0.466000 0.466000
-4.059000 1.829000 0.909000 0.459600 0.459700
-4.049000 1.815000 0.908200 0.453800 0.453800
-4.039000 1.809000 0.908000 0.451200 0.451200
-4.029000 1.806000 0.908000 0.448600 0.448500
-4.019000 1.800000 0.908000 0.445800 0.445900
-4.009000 1.774000 0.907600 0.434300 0.434200
-3.999000 1.774000 0.907800 0.431600 0.431700
-3.989000 1.768000 0.911000 0.429600 0.429500
-3.979000 1.765000 0.911000 0.427300 0.427300
-3.969000 1.762000 0.911200 0.425000 0.425000
-3.959000 1.776000 0.927000 0.423700 0.423800
-3.949000 1.773000 0.930000 0.421500 0.421600
-3.939000 1.770000 0.933200 0.419500 0.419300
-3.929000 1.770000 0.933200 0.417100 0.417200
-3.919000 1.767000 0.936200 0.415100 0.415000
-3.909000 1.764000 0.936400 0.412900 0.413000
-3.899000 1.761000 0.942400 0.410500 0.410500
-3.889000 1.761000 0.942400 0.408400 0.408400
-3.879000 1.758000 0.942400 0.406200 0.406100
-3.869000 1.752000 0.945400 0.404000 0.404100
-3.859000 1.752000 0.945200 0.401500 0.401700
-3.849000 1.744000 0.945200 0.399500 0.399500
-3.839000 1.741000 0.948000 0.397200 0.397300
-3.829000 1.738000 0.947800 0.395000 0.394900
-3.819000 1.735000 0.947400 0.392600 0.392700
-3.809000 1.732000 0.950200 0.390800 0.390600
-3.799000 1.727000 0.952800 0.388400 0.388400
-3.789000 1.724000 0.952600 0.386100 0.386200
-3.779000 1.718000 0.952200 0.384000 0.384000
-3.769000 1.718000 0.955000 0.381900 0.382000
-3.759000 1.715000 0.954600 0.379700 0.379500
-3.749000 1.707000 0.954200 0.377600 0.377600
-3.739000 1.707000 0.956800 0.375500 0.375500
-3.729000 1.668000 0.950000 0.359900 0.359900
-3.719000 1.668000 0.949800 0.358600 0.358700
-3.709000 1.668000 0.949600 0.357400 0.357300
-3.699000 1.668000 0.952400 0.356400 0.356500
-3.689000 1.665000 0.952200 0.355400 0.355100
-3.679000 1.663000 0.952000 0.354000 0.354100
-3.669000 1.660000 0.954800 0.352900 0.353000
-3.659000 1.657000 0.957600 0.352000 0.351900
-3.649000 1.660000 0.957400 0.350800 0.350700
-3.639000 1.660000 0.960200 0.349600 0.349800
-3.629000 1.660000 0.963000 0.348800 0.348900
-3.619000 1.660000 0.962800 0.347800 0.347700
-3.609000 1.639000 0.952200 0.342800 0.343000
-3.599000 1.639000 0.955200 0.341900 0.341800
-3.589000 1.639000 0.958000 0.340500 0.340600
-3.579000 1.639000 0.961000 0.339400 0.339400
-3.569000 1.639000 0.960800 0.338000 0.338000
-3.559000 1.637000 0.966600 0.337000 0.337000
-3.549000 1.637000 0.966600 0.335600 0.335600
-3.539000 1.637000 0.969400 0.334400 0.334100
-3.529000 1.637000 0.972400 0.332900 0.333100
-3.519000 1.637000 0.972200 0.331800 0.331700
-3.509000 1.637000 0.975000 0.330600 0.330500
-3.499000 1.637000 0.977800 0.329200 0.329300
-3.489000 1.637000 0.980600 0.328000 0.328100
-3.479000 1.634000 0.980400 0.326500 0.326600
-3.469000 1.632000 0.983200 0.325300 0.325100
-3.459000 1.632000 0.983000 0.323900 0.324100
-3.449000 1.629000 0.985800 0.322400 0.322700
-3.439000 1.629000 0.985600 0.322000 0.322000
-3.429000 1.629000 0.988200 0.320300 0.320100
-3.419000 1.624000 0.987800 0.318300 0.318400
-3.409000 1.618000 0.987200 0.316100 0.316200
-3.399000 1.710000 1.072800 0.319000 0.319100
-3.389000 1.730000 1.091200 0.318400 0.318200
-3.379000 1.748000 1.109400 0.317600 0.317700
-3.369000 1.763000 1.133800 0.316800 0.317000
-3.359000 1.783000 1.151800 0.316100 0.316000
-3.349000 1.801000 1.170000 0.315500 0.315500
-3.339000 1.821000 1.190800 0.314800 0.314900
-3.329000 1.833000 1.205400 0.313900 0.313800
-3.319000 1.837000 1.216600 0.312500 0.312400
-3.309000 1.846000 1.224800 0.311100 0.311000
-3.299000 1.852000 1.233200 0.310100 0.310100
-3.289000 1.864000 1.241600 0.310000 0.309900
-3.279000 1.873000 1.253200 0.310300 0.310100
-3.269000 1.885000 1.261600 0.310200 0.310200
-3.259000 1.894000 1.273000 0.310300 0.310200
-3.249000 1.903000 1.284400 0.310200 0.310400
-3.239000 1.915000 1.292800 0.310300 0.310300
-3.229000 1.924000 1.304000 0.310500 0.310600
-3.219000 1.951000 1.324800 0.311600 0.311800
-3.209000 1.960000 1.333000 0.311800 0.311700
-3.199000 1.969000 1.344000 0.312000 0.311900
-3.189000 1.973000 1.351600 0.311700 0.311800
-3.179000 1.979000 1.356400 0.311400 0.311500
-3.169000 1.983000 1.361000 0.311100 0.311300
-3.159000 1.992000 1.368800 0.311000 0.311100
-3.149000 1.917000 1.303200 0.305800 0.306000
-3.139000 1.822000 1.225200 0.299900 0.299900
-3.129000 1.735000 1.144600 0.293400 0.293300
-3.119000 1.666800 1.091400 0.289000 0.288800
-3.109000 1.643200 1.069000 0.286400 0.286300
-3.099000 1.616400 1.046400 0.284100 0.284100
-3.089000 1.586600 1.024000 0.281700 0.281600
-3.079000 1.560000 1.001600 0.279000 0.279000
-3.069000 1.533200 0.979200 0.276600 0.276400
-3.059000 1.506600 0.956800 0.274100 0.274000
-3.049000 1.477000 0.934400 0.271700 0.271500
-3.039000 1.450200 0.912000 0.269100 0.269200
-3.029000 1.423600 0.888300 0.266500 0.266400
-3.019000 1.400400 0.872100 0.264300 0.264300
-3.009000 1.386600 0.861000 0.262800 0.262700
-2.999000 1.373000 0.850100 0.261000 0.261100
-2.989000 1.359200 0.839100 0.259400 0.259500
-2.979000 1.342400 0.827300 0.257400 0.257700
-2.969000 1.325800 0.812800 0.255900 0.255900
-2.959000 1.309000 0.801300 0.254000 0.254100
-2.949000 1.292400 0.790000 0.252300 0.252300
-2.939000 1.278600 0.775200 0.250300 0.250500
-2.929000 1.261800 0.763900 0.248700 0.248800
-2.919000 1.245200 0.749400 0.246900 0.247100
-2.909000 1.209800 0.734600 0.238200 0.238200
-2.899000 1.193200 0.720300 0.236700 0.236700
-2.889000 1.179800 0.709200 0.235100 0.235100
-2.879000 1.163200 0.695200 0.233300 0.233300
-2.869000 1.149800 0.684100 0.231600 0.231500
-2.859000 1.133400 0.673600 0.230000 0.229900
-2.849000 1.126200 0.667500 0.228800 0.228700
-2.839000 1.116200 0.661800 0.227800 0.227700
-2.829000 1.109400 0.656600 0.226400 0.226500
-2.819000 1.102400 0.651100 0.225400 0.225500
-2.809000 1.092400 0.645400 0.224400 0.224400
-2.799000 1.085400 0.639900 0.223400 0.223400
-2.789000 1.078400 0.634700 0.222200 0.222400
-2.779000 1.071400 0.629000 0.221200 0.221200
-2.769000 1.061400 0.623500 0.220300 0.220200
-2.759000 1.054600 0.618300 0.219100 0.219100
-2.749000 1.047600 0.612600 0.217900 0.217900
-2.739000 1.040600 0.607100 0.216900 0.216900
-2.729000 1.030600 0.601600 0.215900 0.215800
-2.719000 1.020400 0.592000 0.214300 0.214400
-2.709000 1.007200 0.582400 0.212900 0.213000
-2.699000 1.000000 0.575800 0.211500 0.211600
-2.689000 0.989800 0.566200 0.210100 0.209700
-2.679000 0.976600 0.559800 0.208500 0.208600
-2.669000 0.966400 0.550200 0.207100 0.207200
-2.659000 0.953200 0.543600 0.205900 0.205800
-2.649000 0.943200 0.534200 0.204300 0.204300
-2.639000 0.933000 0.526400 0.202700 0.202700
-2.629000 0.926000 0.520600 0.201500 0.201600
-2.619000 0.916200 0.515100 0.200500 0.200400
-2.609000 0.909200 0.508800 0.199200 0.199200
-2.599000 0.895800 0.503100 0.197400 0.197400
-2.589000 0.888600 0.497100 0.195800 0.195900
-2.579000 0.878400 0.491100 0.194000 0.194000
-2.569000 0.871200 0.485400 0.192400 0.192400
-2.559000 0.861200 0.479200 0.190800 0.191000
-2.549000 0.851000 0.473500 0.189000 0.189000
-2.539000 0.852200 0.473000 0.190000 0.190100
-2.529000 0.841200 0.466000 0.188200 0.188300
-2.519000 0.833200 0.458500 0.186400 0.186300
-2.509000 0.819200 0.451000 0.184300 0.184300
-2.499000 0.808400 0.444000 0.182240 0.182040
-2.489000 0.796400 0.436500 0.180160 0.180260
-2.479000 0.784700 0.429500 0.178080 0.178180
-2.469000 0.776000 0.422800 0.175980 0.176180
-2.459000 0.764000 0.415500 0.174000 0.173700
-2.449000 0.752500 0.409000 0.171940 0.171940
-2.439000 0.741500 0.402200 0.169980 0.170180
-2.429000 0.772300 0.405200 0.184320 0.184320
-2.419000 0.759400 0.397500 0.181000 0.181200
-2.409000 0.746500 0.390300 0.177760 0.177960
-2.399000 0.757300 0.401200 0.178040 0.177940
-2.389000 0.746100 0.396100 0.175000 0.175200
-2.379000 0.734800 0.391300 0.172280 0.172280
-2.369000 0.726500 0.386700 0.169480 0.169580
-2.359000 0.714900 0.380700 0.166460 0.166460
-2.349000 0.699700 0.374100 0.163320 0.163220
-2.339000 0.687200 0.367200 0.160080 0.160080
-2.329000 0.675000 0.360800 0.156660 0.156760
-2.319000 0.660000 0.354200 0.153540 0.153640
-2.309000 0.647800 0.347800 0.150220 0.150120
-2.299000 0.635500 0.340900 0.146620 0.146920
-2.289000 0.620500 0.334500 0.143340 0.143440
-2.279000 0.608500 0.328400 0.139760 0.139660
-2.269000 0.596200 0.322000 0.136280 0.136180
-2.259000 0.581500 0.315900 0.132820 0.132820
-2.249000 0.568200 0.309800 0.129260 0.129260
-2.239000 0.554700 0.303700 0.125500 0.125500
-2.229000 0.541400 0.297900 0.121760 0.121760
-2.219000 0.528100 0.292000 0.118040 0.118140
-2.209000 0.514500 0.285900 0.114520 0.114620
-2.199000 0.501400 0.280000 0.110800 0.110600
-2.189000 0.487800 0.273900 0.106700 0.106900
-2.179000 0.474400 0.268600 0.102900 0.102900
-2.169000 0.460700 0.262700 0.099000 0.099000
-2.159000 0.447300 0.257400 0.095320 0.095220
-2.149000 0.433600 0.251800 0.091160 0.091060
-2.139000 0.420400 0.245900 0.087100 0.087160
-2.129000 0.399200 0.238100 0.080900 0.080830
-2.119000 0.391400 0.234400 0.078600 0.078510
-2.109000 0.383200 0.230800 0.076240 0.076220
-2.099000 0.375000 0.227000 0.073860 0.073920
-2.089000 0.366800 0.223200 0.071800 0.071830
-2.079000 0.462000 0.319000 0.071320 0.071520
-2.069000 0.569500 0.426500 0.071420 0.071520
-2.059000 0.651500 0.509400 0.071080 0.071190
-2.049000 0.711200 0.561900 0.074540 0.074480
-2.039000 0.788200 0.625800 0.081640 0.081500
-2.029000 0.819900 0.658600 0.080700 0.080530
-2.019000 0.851600 0.692000 0.079760 0.079770
-2.009000 0.883900 0.723500 0.078860 0.079020
-1.999000 0.913900 0.756100 0.078060 0.078080
-1.989000 0.943200 0.787300 0.077300 0.077370
-1.979000 0.959400 0.806700 0.076380 0.076360
-1.969000 0.977600 0.825800 0.075380 0.075360
-1.959000 0.993100 0.843200 0.074500 0.074640
-1.949000 1.009600 0.862900 0.073640 0.073730
-1.939000 1.028100 0.880300 0.072900 0.072900
-1.929000 1.044900 0.898000 0.072060 0.072060
-1.919000 1.058700 0.917400 0.071340 0.071480
-1.909000 1.077800 0.935100 0.070880 0.070770
-1.899000 1.094600 0.953100 0.070200 0.070230
-1.889000 1.112000 0.970800 0.069560 0.069580
-1.879000 1.129100 0.988800 0.069200 0.069140
-1.869000 1.140900 1.004200 0.068580 0.068670
-1.859000 1.152700 1.016300 0.068130 0.068000
-1.849000 1.162200 1.026700 0.067530 0.067570
-1.839000 1.174000 1.038800 0.067080 0.067180
-1.829000 1.187000 1.052200 0.066730 0.066820
-1.819000 1.195000 1.064900 0.066340 0.066330
-1.809000 1.208000 1.075300 0.066140 0.066040
-1.799000 1.219000 1.087700 0.065910 0.065790
-1.789000 1.162100 1.035600 0.063930 0.063910
-1.779000 1.148800 1.022600 0.063130 0.063070
-1.769000 1.347000 1.134000 0.107280 0.107550
-1.759000 1.307000 1.103000 0.100880 0.100970
-1.749000 1.267000 1.077000 0.094260 0.094420
-1.739000 1.230000 1.054000 0.087480 0.087580
-1.729000 1.200000 1.038600 0.080910 0.080790
-1.719000 1.171000 1.021800 0.073940 0.073830
-1.709000 1.143400 1.009100 0.066780 0.066690
-1.699000 1.110800 0.991100 0.059460 0.059540
-1.689000 1.080600 0.977500 0.052040 0.052000
-1.679000 1.050400 0.961300 0.044340 0.044340
-1.669000 1.019900 0.946500 0.036470 0.036460
-1.659000 1.010700 0.942900 0.033420 0.033420
-1.649000 1.028800 0.954800 0.036410 0.036420
-1.639000 1.046900 0.969000 0.039390 0.039410
-1.629000 1.065000 0.980900 0.042310 0.042320
-1.619000 1.087800 0.997500 0.045120 0.045140
-1.609000 1.105300 1.010800 0.047870 0.047850
-1.599000 1.125500 1.026800 0.050500 0.050510
-1.589000 1.144700 1.039800 0.053050 0.053040
-1.579000 1.166900 1.055800 0.055670 0.055650
-1.569000 1.195000 1.077100 0.058420 0.058560
-1.559000 1.219800 1.097700 0.061170 0.061220
-1.549000 1.247300 1.120700 0.063860 0.063890
-1.539000 1.275000 1.141700 0.066600 0.066590
-1.529000 1.301000 1.161400 0.069230 0.069320
-1.519000 1.329000 1.184400 0.072070 0.071970
-1.509000 1.355000 1.207100 0.074740 0.074730
-1.499000 1.383000 1.231500 0.077280 0.077380
-1.489000 1.414000 1.253900 0.079930 0.079940
-1.479000 1.442000 1.278000 0.082380 0.082480
-1.469000 1.469000 1.301000 0.085100 0.085010
-1.459000 1.497000 1.320000 0.087600 0.087480
-1.449000 2.090000 1.778000 0.154300 0.154300
-1.439000 2.049000 1.750000 0.149500 0.149400
-1.429000 2.008000 1.720000 0.144800 0.144900
-1.419000 1.969000 1.690000 0.140200 0.140100
-1.409000 1.931000 1.656000 0.135500 0.135400
-1.399000 1.889000 1.626000 0.131000 0.131000
-1.389000 1.848000 1.596000 0.126500 0.126430
-1.379000 1.812000 1.568000 0.122100 0.122130
-1.369000 1.776000 1.540000 0.118160 0.118230
-1.359000 1.737000 1.510000 0.113980 0.114040
-1.349000 1.701000 1.479000 0.110000 0.110150
-1.339000 1.665000 1.449000 0.106040 0.106070
-1.329000 1.623000 1.421000 0.102180 0.102190
-1.319000 1.587000 1.390000 0.098220 0.098090
-1.309000 1.548000 1.360000 0.094460 0.094460
-1.299000 1.512000 1.332000 0.090720 0.090630
-1.289000 2.025000 1.740000 0.142000 0.142100
-1.279000 3.211000 2.773000 0.218500 0.218400
-1.269000 1.153700 1.044800 0.055420 0.055410
-1.259000 1.141000 1.032700 0.054620 0.054600
-1.249000 1.130300 1.023600 0.053830 0.053800
-1.239000 1.115000 1.010900 0.052920 0.052920
-1.229000 1.101700 0.998200 0.052050 0.052060
-1.219000 1.088700 0.985500 0.051230 0.051250
-1.209000 1.075700 0.976100 0.050420 0.050410
-1.199000 1.064700 0.965700 0.049620 0.049610
-1.189000 1.051700 0.953300 0.048820 0.048840
-1.179000 1.038700 0.943600 0.048010 0.048010
-1.169000 1.031700 0.934200 0.047580 0.047610
-1.159000 1.030300 0.933100 0.047560 0.047590
-1.149000 1.025900 0.930000 0.047580 0.047590
-1.139000 1.022500 0.928900 0.047620 0.047590
-1.129000 1.021400 0.925800 0.047660 0.047650
-1.119000 1.017300 0.925000 0.047740 0.047760
-1.109000 1.016500 0.919500 0.047870 0.047870
-1.099000 1.015700 0.918700 0.047990 0.047980
-1.089000 1.011900 0.916200 0.048150 0.048140
-1.079000 1.011700 0.913300 0.048370 0.048390
-1.069000 1.015000 0.919300 0.048860 0.048850
-1.059000 1.021300 0.920600 0.049370 0.049370
-1.049000 1.024600 0.926900 0.049890 0.049900
-1.039000 1.031200 0.928500 0.050470 0.050470
-1.029000 1.034800 0.932100 0.051090 0.051090
-1.019000 1.144000 1.028000 0.058470 0.058470
-1.009000 1.846000 1.650000 0.098280 0.098170
-0.999000 2.542000 2.288000 0.128060 0.127920
-0.989000 0.992600 0.894700 0.049510 0.049530
-0.979000 0.995900 0.896000 0.050210 0.050200
-0.969000 0.996200 0.894300 0.050900 0.050880
-0.959000 0.997800 0.892900 0.051630 0.051630
-0.949000 0.998700 0.894500 0.052380 0.052360
-0.939000 1.002300 0.895100 0.053160 0.053140
-0.929000 1.001500 0.894000 0.053960 0.053950
-0.919000 1.090300 0.962100 0.064150 0.064150
-0.909000 1.078700 0.953100 0.062370 0.062380
-0.899000 1.067400 0.944100 0.060810 0.060800
-0.889000 1.053100 0.935100 0.059280 0.059300
-0.879000 1.043800 0.926400 0.057980 0.057970
-0.869000 1.032500 0.917400 0.056470 0.056490
-0.859000 1.018200 0.908700 0.055200 0.055200
-0.849000 1.007200 0.899700 0.053960 0.053950
-0.839000 0.992900 0.889000 0.052700 0.052710
-0.829000 0.981900 0.880300 0.051540 0.051550
-0.819000 0.970900 0.871600 0.050460 0.050460
-0.809000 0.958600 0.857900 0.049420 0.049430
-0.799000 0.947600 0.849200 0.048440 0.048430
-0.789000 0.917900 0.825400 0.046190 0.046160
-0.779000 0.906600 0.814400 0.045290 0.045300
-0.769000 0.895600 0.806000 0.044660 0.044670
-0.759000 0.898600 0.808700 0.044930 0.044900
-0.749000 0.903300 0.811400 0.045160 0.045180
-0.739000 0.903300 0.814100 0.045400 0.045400
-0.729000 0.908000 0.815800 0.045620 0.045640
-0.719000 0.910700 0.818500 0.045880 0.045890
-0.709000 0.915400 0.823200 0.046090 0.046080
-0.699000 0.915100 0.822900 0.046290 0.046300
-0.689000 0.919800 0.827300 0.046510 0.046510
-0.679000 0.953400 0.855300 0.048050 0.048050
-0.669000 1.025300 0.920700 0.051190 0.051180
-0.659000 1.115800 1.004700 0.054740 0.054740
-0.649000 1.197200 1.081600 0.057900 0.057910
-0.639000 1.286800 1.162400 0.060980 0.060970
-0.629000 1.388800 1.257300 0.064420 0.064440
-0.619000 1.489000 1.352200 0.067780 0.067770
-0.609000 1.048700 0.947100 0.051100 0.051080
-0.599000 1.053100 0.948500 0.051240 0.051240
-0.589000 1.054500 0.952600 0.051390 0.051410
-0.579000 1.060900 0.954000 0.051530 0.051550
-0.569000 1.062300 0.960100 0.051680 0.051680
-0.559000 1.066700 0.961500 0.051800 0.051810
-0.549000 1.069800 0.965600 0.051930 0.051950
-0.539000 1.071200 0.969000 0.052060 0.052060
-0.529000 1.084600 0.980100 0.052230 0.052230
-0.519000 1.217500 1.108500 0.053740 0.053740
-0.509000 1.346600 1.233800 0.056530 0.056530
-0.499000 1.481300 1.358000 0.060630 0.060640
-0.489000 2.730000 2.495000 0.118260 0.118200
-0.479000 2.372000 2.174300 0.099620 0.099530
-0.469000 1.374700 1.249900 0.063340 0.063360
-0.459000 1.391200 1.260800 0.064710 0.064710
-0.449000 1.407000 1.274000 0.066120 0.066120
-0.439000 1.423500 1.289600 0.067530 0.067510
-0.429000 1.441700 1.302200 0.068910 0.068920
-0.419000 1.439900 1.304800 0.069310 0.069340
-0.409000 1.441100 1.300400 0.069660 0.069680
-0.399000 1.444900 1.301300 0.070400 0.070400
-0.389000 1.447000 1.308100 0.071240 0.071240
-0.379000 1.454400 1.309600 0.072290 0.072290
-0.369000 1.458800 1.311400 0.073100 0.073110
-0.359000 1.463200 1.315200 0.074130 0.074120
-0.349000 1.467600 1.317000 0.075130 0.075140
-0.339000 1.472000 1.320800 0.075910 0.075930
-0.329000 1.470800 1.317300 0.076510 0.076500
-0.319000 1.466600 1.313100 0.076920 0.076930
-0.309000 1.465700 1.311900 0.077330 0.077350
-0.299000 1.464800 1.308700 0.077960 0.077960
-0.289000 1.462200 1.304800 0.078400 0.078400
-0.279000 1.458300 1.301900 0.079080 0.079040
-0.269000 1.473000 1.316000 0.080120 0.080100
-0.259000 1.499800 1.336900 0.081380 0.081400
-0.249000 1.524300 1.358100 0.082860 0.082890
-0.239000 1.548100 1.379000 0.084280 0.084350
-0.229000 1.571600 1.399900 0.085530 0.085590
-0.219000 1.597500 1.425200 0.086840 0.086760
-0.209000 2.084000 1.869400 0.108140 0.108100
-0.199000 2.073000 1.858500 0.107600 0.107630
-0.189000 2.051000 1.837300 0.106680 0.106930
-0.179000 2.009200 1.797600 0.104840 0.104810
-0.169000 1.701700 1.513800 0.095410 0.095320
-0.159000 1.714700 1.524400 0.095080 0.095100
-0.149000 1.661400 1.477600 0.093010 0.092910
-0.139000 1.649300 1.463800 0.092950 0.092850
-0.129000 1.641100 1.457600 0.092880 0.092890
-0.119000 1.634900 1.449100 0.092920 0.093000
-0.109000 1.626400 1.442900 0.092940 0.093030
-0.099000 1.618200 1.434400 0.092740 0.092840
-0.089000 1.612000 1.428200 0.092760 0.092870
-0.079000 1.603500 1.420000 0.092770 0.092880
-0.069000 1.597300 1.413500 0.092790 0.092680
-0.059000 1.589100 1.405300 0.092590 0.092480
-0.049000 1.582600 1.398800 0.092490 0.092380
-0.039000 1.579700 1.392900 0.092510 0.092490
-0.029000 1.579400 1.390300 0.093060 0.093060
-0.019000 1.576800 1.390000 0.093310 0.093300
-0.009000 1.573500 1.387400 0.093730 0.093640
0.001000 1.576500 1.387100 0.094230 0.094040
0.011000 1.583500 1.393800 0.095060 0.094960
0.021000 1.592100 1.401800 0.095990 0.095990
0.031000 1.599400 1.406800 0.096920 0.096910
0.041000 1.610000 1.413800 0.097530 0.097450
0.051000 1.615600 1.422100 0.098460 0.098370
0.061000 1.626200 1.427400 0.099400 0.099410
0.071000 1.632100 1.432700 0.100030 0.100120
0.081000 1.653600 1.448300 0.101440 0.101340
0.091000 1.678300 1.471800 0.103120 0.103120
0.101000 1.706000 1.498600 0.105000 0.104790
0.111000 1.711900 1.502200 0.105560 0.105550
0.121000 2.056100 1.818300 0.119000 0.118880
0.131000 2.021800 1.784200 0.117700 0.117550
0.141000 1.984200 1.752800 0.116100 0.116220
0.151000 1.814400 1.589600 0.111880 0.111980
0.161000 1.785300 1.564400 0.111040 0.111180
0.171000 1.753000 1.535000 0.109910 0.109920
0.181000 1.722400 1.505300 0.108530 0.108640
0.191000 1.691500 1.475300 0.107070 0.107170
0.201000 1.697100 1.482900 0.107380 0.107390
0.211000 1.713900 1.497100 0.107720 0.107640
0.221000 1.728700 1.510300 0.107880 0.107860
0.231000 1.747500 1.531500 0.108350 0.108360
0.241000 1.769300 1.549700 0.108820 0.109010
0.251000 1.788400 1.570900 0.109460 0.109570
0.261000 1.810200 1.589100 0.110160 0.110110
0.271000 1.834900 1.615900 0.110980 0.110910
0.281000 1.862600 1.638000 0.111920 0.111920
0.291000 1.888600 1.662100 0.112840 0.112920
0.301000 1.913300 1.684200 0.113800 0.113820
0.311000 1.941000 1.711300 0.114800 0.114820
0.321000 1.965700 1.735100 0.115600 0.115600
0.331000 2.006600 1.772500 0.116800 0.117000
0.341000 2.045200 1.811900 0.118500 0.118500
0.351000 2.696000 2.429400 0.134000 0.134000
0.361000 3.208000 2.913000 0.146900 0.147000
0.371000 3.712000 3.389000 0.160800 0.160700
0.381000 2.871000 2.593100 0.139600 0.139900
0.391000 2.941000 2.658000 0.142700 0.142400
0.401000 2.919000 2.634800 0.142100 0.142200
0.411000 2.862000 2.579800 0.140500 0.140400
0.421000 2.799000 2.521200 0.138500 0.138700
0.431000 2.736000 2.463900 0.136600 0.136700
0.441000 2.676000 2.408900 0.134600 0.134700
0.451000 2.621000 2.354200 0.133000 0.133000
0.461000 2.571000 2.307100 0.132000 0.132000
0.471000 2.518000 2.258000 0.130400 0.130200
0.481000 2.493000 2.235400 0.129500 0.129600
0.491000 2.488000 2.228300 0.129200 0.129100
0.501000 2.482100 2.225900 0.128700 0.128700
0.511000 2.478000 2.218500 0.128300 0.128400
0.521000 2.468600 2.214100 0.128000 0.127900
0.531000 2.477100 2.221700 0.128100 0.128400
0.541000 2.525000 2.266900 0.130100 0.130000
0.551000 2.577900 2.312100 0.131900 0.132100
0.561000 2.769000 2.492100 0.137900 0.137700
0.571000 3.026000 2.733500 0.146200 0.146400
0.581000 2.914000 2.627800 0.142700 0.142700
0.591000 2.802000 2.524400 0.139200 0.139200
0.601000 2.690900 2.418300 0.135600 0.135600
0.611000 2.579800 2.316100 0.131900 0.131900
0.621000 2.529000 2.266500 0.130600 0.130600
0.631000 2.570800 2.301500 0.134700 0.134800
0.641000 2.629900 2.355300 0.136700 0.136800
0.651000 3.835000 3.477900 0.177900 0.177800
0.661000 2.708500 2.427200 0.140800 0.140700
0.671000 1.766100 1.553200 0.107700 0.107900
0.681000 0.827800 0.677900 0.075010 0.075010
0.691000 0.657000 0.518600 0.069318 0.069280
0.701000 0.661800 0.521500 0.069734 0.069660
0.711000 0.663900 0.524900 0.069760 0.069840
0.721000 0.668700 0.527800 0.070176 0.070200
0.731000 0.673800 0.531500 0.070623 0.070600
0.741000 0.675600 0.534600 0.070849 0.070760
0.751000 0.680400 0.537500 0.071066 0.071160
0.761000 0.682000 0.540100 0.071281 0.071190
0.771000 0.686800 0.542900 0.071487 0.071550
0.781000 0.688400 0.545500 0.071703 0.071730
0.791000 0.693200 0.548600 0.072120 0.072060
0.801000 0.694800 0.550900 0.072136 0.072120
0.811000 0.699100 0.553700 0.072552 0.072490
0.821000 0.700900 0.556300 0.072569 0.072630
0.831000 0.705500 0.559400 0.072996 0.072910
0.841000 0.707300 0.562200 0.072992 0.073040
0.851000 0.711900 0.564500 0.073409 0.073400
0.861000 0.713700 0.567300 0.073430 0.073450
0.871000 0.718000 0.570200 0.073640 0.073610
0.881000 0.719600 0.573000 0.073840 0.073960
0.891000 0.724400 0.575800 0.074060 0.074010
0.901000 0.726200 0.578700 0.074480 0.074370
0.911000 0.735800 0.584700 0.074940 0.074940
0.921000 0.742400 0.592200 0.075600 0.075590
0.931000 0.748000 0.594600 0.076040 0.076100
0.941000 0.753800 0.599800 0.076500 0.076500
0.951000 0.759400 0.604900 0.076930 0.076910
0.961000 0.761900 0.610100 0.077370 0.077310
0.971000 0.767500 0.612200 0.077620 0.077710
0.981000 0.773300 0.617600 0.078040 0.078100
0.991000 0.778600 0.622500 0.078300 0.078300
1.001000 0.784400 0.627900 0.078720 0.078710
1.011000 0.790000 0.630000 0.079170 0.079090
1.021000 0.795500 0.635400 0.079420 0.079510
1.031000 0.801100 0.640500 0.079850 0.079920
1.041000 0.803600 0.645400 0.080310 0.080300
1.051000 0.809400 0.647800 0.080750 0.080700
1.061000 0.813700 0.652300 0.080780 0.080740
1.071000 0.815200 0.653300 0.080790 0.080870
1.081000 0.819200 0.657600 0.080780 0.080890
1.091000 0.820500 0.658600 0.080990 0.080920
1.101000 0.821700 0.659900 0.081020 0.080940
1.111000 0.826000 0.663900 0.081030 0.081070
1.121000 0.827300 0.665400 0.081040 0.081110
1.131000 0.832700 0.670400 0.081500 0.081490
1.141000 0.839400 0.673400 0.081980 0.081970
1.151000 0.841300 0.678400 0.082020 0.082030
1.161000 0.846100 0.679900 0.082050 0.082060
1.171000 0.847600 0.684400 0.082260 0.082220
1.181000 0.852100 0.685900 0.082490 0.082460
1.191000 0.853600 0.690200 0.082510 0.082490
1.201000 0.858100 0.691700 0.082530 0.082630
1.211000 0.859600 0.692900 0.082760 0.082680
1.221000 0.861100 0.697400 0.082780 0.082740
1.231000 0.865600 0.698900 0.082820 0.082770
1.241000 0.867100 0.703400 0.082850 0.082910
1.251000 0.871300 0.704700 0.082870 0.082940
1.261000 0.905300 0.732300 0.086060 0.086050
1.271000 0.911100 0.737400 0.086120 0.086160
1.281000 0.917400 0.743300 0.086800 0.086800
1.291000 0.924000 0.749500 0.087280 0.087370
1.301000 0.934100 0.758700 0.087760 0.087830
1.311000 0.940700 0.764900 0.088240 0.088280
1.321000 0.950000 0.770800 0.088720 0.088720
1.331000 0.956600 0.777000 0.089220 0.089160
1.341000 0.963000 0.785900 0.089490 0.089590
1.351000 0.972600 0.791800 0.089980 0.089930
1.361000 0.978000 0.798000 0.090460 0.090370
1.371000 0.985400 0.803900 0.090730 0.090800
1.381000 0.995600 0.813000 0.091220 0.091240
1.391000 1.002800 0.818900 0.091490 0.091490
1.401000 1.007000 0.824800 0.091800 0.091830
1.411000 1.017600 0.831700 0.092290 0.092380
1.421000 1.028000 0.841400 0.093010 0.093070
1.431000 1.039000 0.851600 0.093530 0.093580
1.441000 1.053000 0.861800 0.094250 0.094290
1.451000 1.064000 0.869000 0.094770 0.094880
1.461000 1.072000 0.879200 0.095510 0.095610
1.471000 1.083000 0.889600 0.096050 0.096110
1.481000 1.094000 0.899800 0.096580 0.096580
1.491000 1.103000 0.907200 0.097320 0.097300
1.501000 1.108000 0.914200 0.097420 0.097430
1.511000 1.116000 0.921400 0.097730 0.097740
1.521000 1.122000 0.928400 0.097830 0.097850
1.531000 1.133000 0.935600 0.098160 0.098220
1.541000 1.144000 0.946000 0.098960 0.098970
1.551000 1.155000 0.956400 0.099540 0.099650
1.561000 1.166000 0.966800 0.100330 0.100320
1.571000 1.183000 0.977200 0.100930 0.100860
1.581000 1.194000 0.990600 0.101730 0.101710
1.591000 1.205000 1.001000 0.102110 0.102150
1.601000 1.219000 1.014400 0.102920 0.102920
1.611000 1.230000 1.024800 0.103340 0.103360
1.621000 1.244000 1.035200 0.104150 0.104130
1.631000 1.255000 1.048600 0.104550 0.104570
1.641000 1.266000 1.055800 0.104930 0.105110
1.651000 1.274000 1.063000 0.105100 0.105150
1.661000 1.291000 1.080000 0.105930 0.105840
1.671000 1.316000 1.103600 0.107250 0.107200
1.681000 1.344000 1.127400 0.108790 0.108670
1.691000 1.369000 1.151200 0.109930 0.109950
1.701000 1.397000 1.175000 0.111300 0.111270
1.711000 1.422000 1.196000 0.112480 0.112580
1.721000 1.450000 1.220000 0.113860 0.113800
1.731000 1.472000 1.241200 0.115050 0.115140
1.741000 1.502000 1.268400 0.116260 0.116380
1.751000 1.544000 1.309600 0.118720 0.118750
1.761000 1.602000 1.361000 0.122110 0.122120
1.771000 1.660000 1.412400 0.125340 0.125320
1.781000 1.746000 1.482600 0.131550 0.131460
1.791000 1.807000 1.534000 0.134660 0.134550
1.801000 1.860000 1.587000 0.137820 0.137760
1.811000 1.918000 1.635000 0.141000 0.141000
1.821000 1.992000 1.703000 0.145240 0.145170
1.831000 2.067000 1.770000 0.149510 0.149660
1.841000 2.229000 1.908000 0.159600 0.159570
1.851000 2.335000 2.002000 0.166020 0.165970
1.861000 2.659000 2.285000 0.185260 0.185130
1.871000 2.980000 2.573000 0.204400 0.204230
1.881000 3.298000 2.852000 0.223000 0.223090
1.891000 7.962000 6.941000 0.507500 0.507500
1.901000 3.161000 2.737000 0.212100 0.212080
1.911000 5.251000 4.573000 0.338900 0.338900
1.921000 1.787000 1.537000 0.127160 0.127160
1.931000 1.340000 1.140800 0.099990 0.100000
1.941000 1.267000 1.077600 0.094930 0.094880
1.951000 1.192000 1.011600 0.090020 0.089990
1.961000 1.119000 0.946200 0.085090 0.085110
1.971000 1.042800 0.881200 0.080120 0.080140
1.981000 0.967400 0.813600 0.075320 0.075350
1.991000 0.886400 0.746900 0.070660 0.070630
2.001000 0.811500 0.680000 0.065680 0.065680
2.011000 0.996400 0.844000 0.076390 0.076390
2.021000 1.226000 1.047000 0.090220 0.090210
2.031000 1.462000 1.254200 0.104580 0.104580
2.041000 0.391100 0.309700 0.040852 0.040840
2.051000 0.392200 0.310300 0.040962 0.040950
2.061000 0.392700 0.310800 0.041092 0.041080
2.071000 0.393500 0.311000 0.041202 0.041200
2.081000 0.394300 0.311500 0.041312 0.041320
2.091000 0.395300 0.312100 0.041462 0.041460
2.101000 0.395800 0.312600 0.041572 0.041580
2.111000 0.396300 0.313100 0.041680 0.041680
2.121000 0.397400 0.313600 0.041810 0.041820
2.131000 0.397900 0.314200 0.041940 0.041940
2.141000 0.398900 0.314700 0.042070 0.042080
2.151000 0.399400 0.315200 0.042190 0.042200
2.161000 0.400500 0.315500 0.042320 0.042350
2.171000 0.401000 0.316300 0.042450 0.042440
2.181000 0.401800 0.316800 0.042600 0.042590
2.191000 0.402500 0.316800 0.042730 0.042730
2.201000 0.403300 0.317600 0.042840 0.042850
2.211000 0.404100 0.318100 0.042990 0.042990
2.221000 0.404600 0.318400 0.043120 0.043140
2.231000 0.405400 0.319200 0.043250 0.043260
2.241000 0.406200 0.319500 0.043410 0.043400
2.251000 0.407200 0.320000 0.043520 0.043540
2.261000 0.407700 0.320500 0.043670 0.043690
2.271000 0.408500 0.321100 0.043800 0.043810
2.281000 0.409300 0.321300 0.043950 0.043930
2.291000 0.410100 0.321800 0.044060 0.044080
2.301000 0.410600 0.322400 0.044210 0.044220
2.311000 0.411600 0.322900 0.044360 0.044360
2.321000 0.412400 0.323200 0.044520 0.044510
2.331000 0.455900 0.357500 0.049130 0.049120
2.341000 0.499600 0.391600 0.053840 0.053880
2.351000 0.538300 0.421900 0.058410 0.058400
2.361000 0.539100 0.421400 0.059030 0.059040
2.371000 0.539800 0.420800 0.059650 0.059680
2.381000 0.540600 0.420300 0.060300 0.060250
2.391000 0.541100 0.419500 0.061000 0.060910
2.401000 0.542100 0.419200 0.061460 0.061550
2.411000 0.542600 0.418700 0.062140 0.062200
2.421000 0.543600 0.417900 0.062820 0.062840
2.431000 0.544400 0.417300 0.063490 0.063510
2.441000 0.544600 0.416800 0.064170 0.064150
2.451000 0.545600 0.416000 0.064860 0.064720
2.461000 0.546100 0.415200 0.065310 0.065380
2.471000 0.547100 0.414900 0.065990 0.066030
2.481000 0.547300 0.414100 0.066680 0.066690
2.491000 0.548100 0.413300 0.067360 0.067340
2.501000 0.548800 0.412500 0.068010 0.068000
2.511000 0.549300 0.411700 0.068900 0.068850
2.521000 0.550000 0.410900 0.069580 0.069540
2.531000 0.550500 0.410100 0.070260 0.070200
2.541000 0.551200 0.409300 0.070950 0.070850
2.551000 0.552000 0.408200 0.071600 0.071520
2.561000 0.552400 0.407400 0.072480 0.072380
2.571000 0.553200 0.406900 0.073160 0.073130
2.581000 0.551900 0.404800 0.073590 0.073630
2.591000 0.550800 0.402700 0.074020 0.074010
2.601000 0.549500 0.400600 0.074650 0.074600
2.611000 0.548700 0.398500 0.075080 0.075080
2.621000 0.547400 0.396400 0.075710 0.075660
2.631000 0.546300 0.394000 0.076130 0.076050
2.641000 0.545300 0.391900 0.076560 0.076630
2.651000 0.544200 0.389800 0.077200 0.077130
2.661000 0.542900 0.387700 0.077820 0.077710
2.671000 0.541800 0.385600 0.078250 0.078290
2.681000 0.540800 0.383500 0.078670 0.078680
2.691000 0.539700 0.381400 0.079300 0.079160
2.701000 0.538400 0.379300 0.079720 0.079760
2.711000 0.537600 0.377000 0.080350 0.080340
2.721000 0.536600 0.374900 0.080770 0.080720
2.731000 0.824400 0.569800 0.127270 0.127270
2.741000 0.826700 0.566400 0.129720 0.129720
2.751000 0.827300 0.562700 0.132380 0.132280
2.761000 0.829300 0.559000 0.135010 0.135010
2.771000 0.829900 0.555100 0.137660 0.137560
2.781000 0.831900 0.550600 0.140500 0.140460
2.791000 0.832500 0.546400 0.143290 0.143260
2.801000 0.834500 0.542200 0.146110 0.145960
2.811000 0.834500 0.537700 0.148930 0.149060
2.821000 0.836800 0.533000 0.151940 0.151760
2.831000 0.838500 0.528500 0.154760 0.154760
2.841000 0.838500 0.523200 0.157770 0.157640
2.851000 0.840200 0.518500 0.160780 0.160840
2.861000 0.840200 0.513300 0.163990 0.163920
2.871000 0.841900 0.508000 0.166790 0.166900
2.881000 0.836000 0.498600 0.169270 0.169100
2.891000 0.826800 0.486100 0.170620 0.170700
2.901000 1.801000 0.904800 0.448000 0.448400
2.911000 3.219000 1.588000 0.815600 0.815500
2.921000 2.980000 1.491000 0.747000 0.746100
2.931000 3.451000 1.679000 0.886200 0.885300
2.941000 5.079000 2.203000 1.437500 1.437600
2.951000 1.973000 1.007700 0.483800 0.483900
2.961000 1.660000 0.842200 0.408000 0.408100
2.971000 1.339000 0.690400 0.324760 0.324900
2.981000 0.980900 0.529800 0.226010 0.225940
2.991000 0.906100 0.489900 0.208040 0.208060
3.001000 0.826000 0.446900 0.189800 0.189860
3.011000 0.743800 0.401000 0.171610 0.171740
3.021000 0.710200 0.381100 0.164400 0.164410
3.031000 0.693400 0.370200 0.161070 0.161040
3.041000 0.674000 0.359700 0.157560 0.157570
3.051000 0.656900 0.349100 0.154040 0.154090
3.061000 0.639800 0.339100 0.150110 0.150220
3.071000 0.622700 0.328700 0.146400 0.146450
3.081000 0.603300 0.318900 0.142670 0.142770
3.091000 0.586200 0.308800 0.138740 0.138590
3.101000 0.567400 0.298700 0.134610 0.134610
3.111000 0.550000 0.288900 0.130470 0.130540
3.121000 0.532600 0.279300 0.126330 0.126250
3.131000 0.513900 0.269700 0.121990 0.122060
3.141000 0.495800 0.260400 0.117650 0.117690
3.151000 0.477700 0.251100 0.113120 0.112980
3.161000 0.460500 0.242500 0.109030 0.108930
3.171000 0.456200 0.239700 0.108220 0.108110
3.181000 0.455900 0.238500 0.108780 0.108740
3.191000 0.455600 0.237200 0.109170 0.109050
3.201000 0.455800 0.236400 0.109570 0.109680
3.211000 0.456000 0.236000 0.109990 0.110010
3.221000 0.456000 0.235500 0.110190 0.110350
3.231000 0.456800 0.235800 0.110630 0.110710
3.241000 0.457500 0.235800 0.110660 0.110750
3.251000 0.458300 0.236100 0.111110 0.111130
3.261000 0.459400 0.236900 0.111150 0.111190
3.271000 0.460400 0.238000 0.111230 0.111280
3.281000 0.461800 0.239100 0.111510 0.111570
3.291000 0.380400 0.198300 0.091010 0.091080
3.301000 0.358100 0.185500 0.086417 0.086340
3.311000 0.336400 0.173030 0.081635 0.081570
3.321000 0.314400 0.161060 0.076868 0.076820
3.331000 0.292900 0.148820 0.071855 0.071830
3.341000 0.270900 0.136940 0.067086 0.067050
3.351000 0.248900 0.125260 0.061872 0.061940
3.361000 0.227700 0.113610 0.056872 0.056920
3.371000 0.206000 0.102290 0.051977 0.052020
3.381000 0.184800 0.090900 0.046876 0.046880
3.391000 0.163100 0.079940 0.041639 0.041650
3.401000 0.141600 0.069010 0.036447 0.036434
3.411000 0.120400 0.058360 0.031169 0.031160
3.421000 0.099410 0.047710 0.025856 0.025846
3.431000 0.078390 0.037330 0.020514 0.020506
3.441000 0.057370 0.027130 0.015090 0.015098
3.451000 0.036360 0.017084 0.009631 0.009641
3.461000 0.015480 0.007235 0.004136 0.004135
3.471000 0.000000 0.000000 0.000000 0.000000
